"Time (s)","Acceleration x (m/s^2)","Acceleration y (m/s^2)","Acceleration z (m/s^2)","Absolute acceleration (m/s^2)"
0.000000000E0,1.977485269E-1,8.492057770E-2,9.827211380E0,9.829567615E0
5.006510000E-3,2.025395185E-1,9.450256079E-2,9.911054611E0,9.913574355E0
1.004338500E-2,1.737935245E-1,1.064800546E-1,9.846375465E0,9.848484756E0
1.508031200E-2,1.881665289E-1,1.328305453E-1,9.889494896E0,9.892176701E0
2.011723900E-2,1.737935245E-1,6.575655192E-2,9.896680832E0,9.898425107E0
2.515411400E-2,1.929575205E-1,5.857007578E-2,9.911054611E0,9.913105798E0
3.019109300E-2,2.049350291E-1,7.533853501E-2,9.911054611E0,9.913459425E0
3.521281200E-2,2.049350291E-1,7.294308394E-2,9.906263351E0,9.908651404E0
4.024973900E-2,2.217035294E-1,9.689807147E-2,9.903867722E0,9.906822777E0
4.528661400E-2,1.929575205E-1,6.575655192E-2,9.896680832E0,9.898780128E0
5.032354100E-2,2.240990251E-1,3.940605000E-2,9.882308006E0,9.884927149E0
5.536046800E-2,2.097260207E-1,3.461508825E-2,9.867935181E0,9.870224310E0
6.039739600E-2,2.312855273E-1,4.419707134E-2,9.906263351E0,9.909061508E0
6.545401000E-2,2.360765189E-1,6.096558645E-2,9.906263351E0,9.909263470E0
7.049093700E-2,2.073305249E-1,6.575655192E-2,9.875122070E0,9.877517187E0
7.552786400E-2,2.121215165E-1,5.138354376E-2,9.882308006E0,9.884717868E0
8.056479100E-2,2.121215165E-1,3.701053932E-2,9.891890526E0,9.894233851E0
8.560166600E-2,1.929575205E-1,2.024208568E-2,9.875122070E0,9.877027804E0
9.063859300E-2,1.953530163E-1,3.701053932E-2,9.879912376E0,9.881912828E0
9.567854100E-2,1.905620247E-1,7.294308394E-2,9.872726440E0,9.874834781E0
1.007154680E-1,1.905620247E-1,9.450256079E-2,9.891890526E0,9.894177217E0
1.057523430E-1,2.097260207E-1,5.377905443E-2,9.887099266E0,9.889469606E0
1.107893230E-1,1.833755225E-1,8.492057770E-2,9.899076462E0,9.901138969E0
1.158261980E-1,2.121215165E-1,9.929358214E-2,9.855957985E0,9.858740414E0
1.208631250E-1,2.097260207E-1,9.450256079E-2,9.855957985E0,9.858642074E0
1.258903640E-1,1.905620247E-1,9.929358214E-2,9.875122070E0,9.877459643E0
1.309272390E-1,2.025395185E-1,1.064800546E-1,9.903867722E0,9.906510794E0
1.359641660E-1,2.288900167E-1,1.016890332E-1,9.889494896E0,9.892666000E0
1.410010930E-1,2.121215165E-1,9.929358214E-2,9.877516747E0,9.880293105E0
1.460380210E-1,2.360765189E-1,1.016890332E-1,9.911054611E0,9.914387338E0
1.510748960E-1,2.432630211E-1,8.971153945E-2,9.923031807E0,9.926418554E0
1.560913020E-1,2.097260207E-1,7.533853501E-2,9.884703636E0,9.887215325E0
1.611282290E-1,1.905620247E-1,6.575655192E-2,9.872726440E0,9.874784310E0
1.661651560E-1,2.001440227E-1,5.857007578E-2,9.891890526E0,9.894088450E0
1.712020830E-1,1.881665289E-1,9.210705012E-2,9.884703636E0,9.886923502E0
1.762389580E-1,2.001440227E-1,9.450256079E-2,9.872726440E0,9.875207123E0
1.812758850E-1,2.169125229E-1,6.575655192E-2,9.894286156E0,9.896882009E0
1.863137500E-1,2.217035294E-1,5.617456511E-2,9.848771095E0,9.851426299E0
1.913506770E-1,2.121215165E-1,3.701053932E-2,9.879912376E0,9.882258542E0
1.963875520E-1,2.217035294E-1,2.982406877E-2,9.879912376E0,9.882444561E0
2.014244790E-1,1.857710183E-1,5.857007578E-2,9.867935181E0,9.869857449E0
2.064614060E-1,2.217035294E-1,4.898803309E-2,9.848771095E0,9.851387941E0
2.114983330E-1,2.049350291E-1,6.336104125E-2,9.872726440E0,9.875056474E0
2.165726560E-1,1.953530163E-1,5.857007578E-2,9.920636177E0,9.922732255E0
2.216095830E-1,2.073305249E-1,6.575655192E-2,9.851166725E0,9.853567664E0
2.266465100E-1,1.881665289E-1,8.731608838E-2,9.908658981E0,9.910830114E0
2.316834370E-1,1.809800267E-1,5.617456511E-2,9.915844917E0,9.917655458E0
2.367203640E-1,1.857710183E-1,8.012955636E-2,9.882308006E0,9.884378744E0
2.417572390E-1,1.785845160E-1,6.815206259E-2,9.896680832E0,9.898526588E0
2.467568750E-1,1.761890203E-1,1.016890332E-1,9.870330811E0,9.872426933E0
2.517938020E-1,1.761890203E-1,1.064800546E-1,9.899076462E0,9.901216863E0
2.568307290E-1,2.169125229E-1,7.773404568E-2,9.891890526E0,9.894573856E0
2.618676040E-1,2.073305249E-1,8.731608838E-2,9.872726440E0,9.875289232E0
2.669045310E-1,2.145170271E-1,9.689807147E-2,9.903867722E0,9.906664557E0
2.719414580E-1,2.121215165E-1,6.575655192E-2,9.894286156E0,9.896778162E0
2.770535410E-1,2.121215165E-1,3.940605000E-2,9.848771095E0,9.851133968E0
2.820904680E-1,2.169125229E-1,3.701053932E-2,9.870330811E0,9.872783353E0
2.871273960E-1,2.264945209E-1,4.419707134E-2,9.863143921E0,9.865843155E0
2.921643230E-1,2.336810231E-1,4.659258202E-2,9.867935181E0,9.870811639E0
2.972011980E-1,2.097260207E-1,6.815206259E-2,9.865539551E0,9.868003868E0
3.022381250E-1,1.570250243E-1,7.533853501E-2,9.889494896E0,9.891028362E0
3.072257290E-1,1.929575205E-1,2.982406877E-2,9.913449287E0,9.915371846E0
3.122626560E-1,2.025395185E-1,7.054757327E-2,9.903867722E0,9.906189735E0
3.172995310E-1,2.073305249E-1,9.210705012E-2,9.894286156E0,9.896886793E0
3.223364580E-1,1.809800267E-1,4.180156067E-2,9.930217743E0,9.931954770E0
3.273733330E-1,1.929575205E-1,8.252506703E-2,9.882308006E0,9.884536131E0
3.324102600E-1,1.785845160E-1,8.252506703E-2,9.899076462E0,9.901031139E0
3.374230730E-1,1.761890203E-1,5.857007578E-2,9.903867722E0,9.905607951E0
3.424599480E-1,2.073305249E-1,9.450256079E-2,9.901472092E0,9.904093409E0
3.474968750E-1,2.025395185E-1,8.492057770E-2,9.901472092E0,9.903907479E0
3.525338020E-1,2.217035294E-1,9.210705012E-2,9.915844917E0,9.918750757E0
3.575707290E-1,1.809800267E-1,9.689807147E-2,9.879912376E0,9.882044908E0
3.626076040E-1,1.857710183E-1,9.210705012E-2,9.863143921E0,9.865323238E0
3.676570830E-1,1.929575205E-1,6.096558645E-2,9.853562355E0,9.855640035E0
3.726940100E-1,1.833755225E-1,6.575655192E-2,9.889494896E0,9.891413438E0
3.777309370E-1,2.001440227E-1,7.054757327E-2,9.889494896E0,9.891771524E0
3.827678120E-1,2.432630211E-1,7.054757327E-2,9.851166725E0,9.854422343E0
3.878047390E-1,2.073305249E-1,6.575655192E-2,9.896680832E0,9.899070732E0
3.928416660E-1,1.929575205E-1,4.898803309E-2,9.927823067E0,9.929818894E0
3.978866140E-1,1.953530163E-1,6.096558645E-2,9.901472092E0,9.903586683E0
4.029234890E-1,2.097260207E-1,7.054757327E-2,9.884703636E0,9.887179979E0
4.079604160E-1,2.264945209E-1,6.575655192E-2,9.872726440E0,9.875543077E0
4.129973430E-1,2.145170271E-1,6.336104125E-2,9.870330811E0,9.872864958E0
4.180342710E-1,2.097260207E-1,3.701053932E-2,9.882308006E0,9.884602486E0
4.230711980E-1,2.336810231E-1,5.869080778E-3,9.894286156E0,9.897047024E0
4.281113540E-1,2.169125229E-1,5.138354376E-2,9.891890526E0,9.894401927E0
4.331482290E-1,2.240990251E-1,1.016890332E-1,9.882308006E0,9.885371645E0
4.381851560E-1,1.857710183E-1,6.575655192E-2,9.906263351E0,9.908223271E0
4.432220830E-1,1.809800267E-1,7.773404568E-2,9.879912376E0,9.881875577E0
4.482590100E-1,2.145170271E-1,5.138354376E-2,9.872726440E0,9.875190388E0
4.532958850E-1,2.432630211E-1,8.492057770E-2,9.925427437E0,9.928771233E0
4.583346350E-1,1.833755225E-1,8.252506703E-2,9.863143921E0,9.865193611E0
4.633715100E-1,1.666070223E-1,8.492057770E-2,9.872726440E0,9.874497292E0
4.684084370E-1,1.881665289E-1,9.450256079E-2,9.860748291E0,9.862996210E0
4.734453640E-1,2.169125229E-1,9.450256079E-2,9.887099266E0,9.889929912E0
4.784822910E-1,2.049350291E-1,6.336104125E-2,9.899076462E0,9.901400294E0
4.835191660E-1,2.097260207E-1,6.336104125E-2,9.899076462E0,9.901500615E0
4.885719270E-1,2.097260207E-1,6.096558645E-2,9.901472092E0,9.903880623E0
4.936088540E-1,1.857710183E-1,7.294308394E-2,9.877516747E0,9.879532815E0
4.986457290E-1,2.001440227E-1,5.377905443E-2,9.865539551E0,9.867716070E0
5.036826560E-1,2.001440227E-1,5.617456511E-2,9.870330811E0,9.872519614E0
5.087195310E-1,1.977485269E-1,5.617456511E-2,9.903867722E0,9.906001005E0
5.137564580E-1,1.953530163E-1,7.054757327E-2,9.913449287E0,9.915624869E0
5.187451040E-1,1.977485269E-1,6.815206259E-2,9.920636177E0,9.922840891E0
5.237820310E-1,1.833755225E-1,5.138354376E-2,9.879912376E0,9.881747589E0
5.288189580E-1,2.121215165E-1,7.294308394E-2,9.913449287E0,9.915986739E0
5.338558850E-1,2.049350291E-1,4.898803309E-2,9.884703636E0,9.886949184E0
5.388927600E-1,2.193080187E-1,5.617456511E-2,9.867935181E0,9.870531714E0
5.439296870E-1,2.193080187E-1,8.012955636E-2,9.903867722E0,9.906619635E0
5.490132810E-1,2.001440227E-1,6.575655192E-2,9.889494896E0,9.891738515E0
5.540502080E-1,2.121215165E-1,5.617456511E-2,9.877516747E0,9.879953856E0
5.590870830E-1,1.977485269E-1,7.533853501E-2,9.927823067E0,9.930078107E0
5.641240100E-1,1.857710183E-1,8.252506703E-2,9.887099266E0,9.889188701E0
5.691609370E-1,1.905620247E-1,1.208530590E-1,9.894286156E0,9.896858991E0
5.741978640E-1,1.905620247E-1,1.064800546E-1,9.891890526E0,9.894298867E0
5.792216140E-1,1.977485269E-1,8.971153945E-2,9.908658981E0,9.911038061E0
5.842584890E-1,1.929575205E-1,8.731608838E-2,9.889494896E0,9.891762533E0
5.892954160E-1,1.929575205E-1,6.815206259E-2,9.853562355E0,9.855687109E0
5.943323430E-1,1.905620247E-1,5.857007578E-2,9.894286156E0,9.896294401E0
5.993692710E-1,2.097260207E-1,9.689807147E-2,9.894286156E0,9.896983014E0
6.044061460E-1,1.809800267E-1,8.731608838E-2,9.824815750E0,9.826870427E0
6.094327080E-1,2.001440227E-1,6.815206259E-2,9.846375465E0,9.848645193E0
6.144695830E-1,2.097260207E-1,3.701053932E-2,9.899076462E0,9.901367056E0
6.195065620E-1,2.240990251E-1,6.096558645E-2,9.887099266E0,9.889826544E0
6.245434370E-1,2.576360404E-1,5.617456511E-2,9.894286156E0,9.897799273E0
6.295803640E-1,2.049350291E-1,5.377905443E-2,9.889494896E0,9.891764244E0
6.346172910E-1,2.169125229E-1,7.294308394E-2,9.903867722E0,9.906511373E0
6.396658850E-1,2.264945209E-1,8.012955636E-2,9.901472092E0,9.904386407E0
6.447028120E-1,1.953530163E-1,6.575655192E-2,9.879912376E0,9.882062299E0
6.497397390E-1,2.097260207E-1,1.040845439E-1,9.872726440E0,9.875502314E0
6.547766660E-1,2.121215165E-1,9.929358214E-2,9.887099266E0,9.889872934E0
6.598135410E-1,2.121215165E-1,6.096558645E-2,9.899076462E0,9.901536605E0
6.648504680E-1,1.929575205E-1,7.773404568E-2,9.887099266E0,9.889287491E0
6.698758850E-1,2.097260207E-1,1.016890332E-1,9.884703636E0,9.887451221E0
6.749128120E-1,1.881665289E-1,5.857007578E-2,9.870330811E0,9.872297980E0
6.799496870E-1,1.953530163E-1,1.160620376E-1,9.877516747E0,9.880130074E0
6.849866140E-1,2.240990251E-1,1.016890332E-1,9.918240547E0,9.921293090E0
6.900234890E-1,1.881665289E-1,6.815206259E-2,9.918240547E0,9.920259417E0
6.950604680E-1,1.953530163E-1,9.210705012E-2,9.867935181E0,9.870298437E0
7.001281250E-1,2.312855273E-1,8.012955636E-2,9.911054611E0,9.914076722E0
7.051650000E-1,2.121215165E-1,7.773404568E-2,9.923031807E0,9.925603174E0
7.102019270E-1,2.025395185E-1,1.184575483E-1,9.901472092E0,9.904251816E0
7.152388020E-1,1.785845160E-1,6.575655192E-2,9.882308006E0,9.884140220E0
7.202757290E-1,1.761890203E-1,5.377905443E-2,9.899076462E0,9.900790350E0
7.253126560E-1,2.169125229E-1,4.419707134E-2,9.865539551E0,9.868022854E0
7.303466140E-1,2.097260207E-1,2.503304742E-2,9.858353615E0,9.860615987E0
7.353835930E-1,2.025395185E-1,2.263753675E-2,9.901472092E0,9.903569271E0
7.404204680E-1,1.857710183E-1,5.857007578E-2,9.896680832E0,9.898597518E0
7.454573960E-1,1.785845160E-1,6.575655192E-2,9.906263351E0,9.908091135E0
7.504942710E-1,1.929575205E-1,4.898803309E-2,9.911054611E0,9.913053815E0
7.555311980E-1,2.288900167E-1,4.898803309E-2,9.870330811E0,9.873105934E0
7.605740100E-1,2.217035294E-1,4.659258202E-2,9.887099266E0,9.889694395E0
7.656109370E-1,2.360765189E-1,5.857007578E-2,9.901472092E0,9.904459206E0
7.706478120E-1,2.001440227E-1,7.533853501E-2,9.899076462E0,9.901386182E0
7.756847390E-1,2.193080187E-1,7.294308394E-2,9.882308006E0,9.885010280E0
7.807216660E-1,2.145170271E-1,5.617456511E-2,9.894286156E0,9.896770770E0
7.857585930E-1,2.097260207E-1,6.575655192E-2,9.896680832E0,9.899121194E0
7.907491660E-1,1.929575205E-1,6.336104125E-2,9.863143921E0,9.865234677E0
7.957860930E-1,1.570250243E-1,5.857007578E-2,9.860748291E0,9.862172386E0
8.008230210E-1,1.761890203E-1,9.210705012E-2,9.889494896E0,9.891493091E0
8.058598960E-1,1.929575205E-1,8.971153945E-2,9.906263351E0,9.908548549E0
8.108968230E-1,1.953530163E-1,4.659258202E-2,9.872726440E0,9.874768911E0
8.159337500E-1,1.642115265E-1,7.294308394E-2,9.915844917E0,9.917472790E0
8.209709890E-1,1.881665289E-1,8.971153945E-2,9.913449287E0,9.915640755E0
8.260079160E-1,1.809800267E-1,8.731608838E-2,9.858353615E0,9.860401303E0
8.310448430E-1,2.049350291E-1,8.012955636E-2,9.906263351E0,9.908706914E0
8.360817710E-1,2.288900167E-1,9.689807147E-2,9.872726440E0,9.875854760E0
8.411186460E-1,2.169125229E-1,9.450256079E-2,9.855957985E0,9.858797573E0
8.461555730E-1,1.857710183E-1,7.054757327E-2,9.865539551E0,9.867540649E0
8.512371350E-1,1.977485269E-1,4.898803309E-2,9.906263351E0,9.908357982E0
8.562740100E-1,2.240990251E-1,6.336104125E-2,9.906263351E0,9.909000383E0
8.613108850E-1,1.977485269E-1,6.575655192E-2,9.853562355E0,9.855765799E0
8.663478120E-1,2.097260207E-1,4.419707134E-2,9.891890526E0,9.894212276E0
8.713847390E-1,2.121215165E-1,7.054757327E-2,9.915844917E0,9.918364428E0
8.764216660E-1,2.097260207E-1,5.138354376E-2,9.887099266E0,9.889456869E0
8.814107290E-1,1.737935245E-1,5.617456511E-2,9.884703636E0,9.886390936E0
8.864476560E-1,1.905620247E-1,8.971153945E-2,9.879912376E0,9.882157184E0
8.914845310E-1,2.025395185E-1,5.138354376E-2,9.913449287E0,9.915651229E0
8.965214580E-1,2.073305249E-1,8.252506703E-2,9.908658981E0,9.911171431E0
9.015583850E-1,2.097260207E-1,8.492057770E-2,9.884703636E0,9.887292981E0
9.065953120E-1,1.833755225E-1,8.252506703E-2,9.887099266E0,9.889143991E0
9.116772910E-1,1.833755225E-1,6.575655192E-2,9.903867722E0,9.905783480E0
9.167141660E-1,1.881665289E-1,5.617456511E-2,9.901472092E0,9.903419198E0
9.217510930E-1,2.001440227E-1,5.377905443E-2,9.867935181E0,9.870111172E0
9.267880210E-1,2.049350291E-1,5.138354376E-2,9.887099266E0,9.889356427E0
9.318248960E-1,2.073305249E-1,9.929358214E-2,9.887099266E0,9.889771335E0
9.368618230E-1,1.737935245E-1,1.136665866E-1,9.891890526E0,9.894070065E0
9.418494790E-1,1.642115265E-1,6.096558645E-2,9.887099266E0,9.888650774E0
9.468864060E-1,1.570250243E-1,2.742855810E-2,9.875122070E0,9.876408512E0
9.519233330E-1,2.001440227E-1,3.221957758E-2,9.894286156E0,9.896362678E0
9.569602080E-1,1.857710183E-1,5.377905443E-2,9.911054611E0,9.912941368E0
9.619971350E-1,1.809800267E-1,5.617456511E-2,9.882308006E0,9.884124690E0
9.670340620E-1,1.713980287E-1,4.180156067E-2,9.882308006E0,9.883882647E0
9.721188020E-1,1.666070223E-1,7.054757327E-2,9.918240547E0,9.919890645E0
9.771556770E-1,2.145170271E-1,3.701053932E-2,9.891890526E0,9.894285498E0
9.821926040E-1,2.145170271E-1,3.701053932E-2,9.879912376E0,9.882310251E0
9.872295310E-1,2.217035294E-1,6.815206259E-2,9.894286156E0,9.897004380E0
9.922664060E-1,1.713980287E-1,9.210705012E-2,9.913449287E0,9.915358681E0
9.973033330E-1,1.929575205E-1,1.064800546E-1,9.903867722E0,9.906319521E0
1.002324531E0,1.977485269E-1,9.210705012E-2,9.901472092E0,9.903874887E0
1.007361406E0,2.145170271E-1,1.184575483E-1,9.887099266E0,9.890135573E0
1.012398333E0,2.001440227E-1,6.575655192E-2,9.877516747E0,9.879763086E0
1.017435156E0,1.929575205E-1,6.096558645E-2,9.894286156E0,9.896355286E0
1.022472083E0,1.953530163E-1,9.689807147E-2,9.875122070E0,9.877529445E0
1.027508958E0,1.953530163E-1,9.689807147E-2,9.865539551E0,9.867949263E0
1.032559531E0,1.833755225E-1,9.689807147E-2,9.915844917E0,9.918013725E0
1.037596406E0,1.761890203E-1,9.210705012E-2,9.896680832E0,9.898677577E0
1.042633333E0,1.785845160E-1,6.815206259E-2,9.901472092E0,9.903316955E0
1.047670156E0,2.025395185E-1,7.294308394E-2,9.889494896E0,9.891837658E0
1.052707083E0,2.001440227E-1,7.054757327E-2,9.846375465E0,9.848662061E0
1.057743958E0,1.833755225E-1,7.773404568E-2,9.853562355E0,9.855575085E0
1.062736198E0,2.169125229E-1,6.336104125E-2,9.903867722E0,9.906445453E0
1.067773125E0,2.240990251E-1,7.294308394E-2,9.908658981E0,9.911461238E0
1.072810000E0,2.001440227E-1,6.815206259E-2,9.918240547E0,9.920493833E0
1.077846875E0,2.097260207E-1,6.336104125E-2,9.903867722E0,9.906290702E0
1.082883802E0,1.953530163E-1,4.898803309E-2,9.903867722E0,9.905915327E0
1.087920677E0,1.857710183E-1,6.815206259E-2,9.872726440E0,9.874709259E0
1.092985208E0,1.929575205E-1,8.012955636E-2,9.918240547E0,9.920440963E0
1.098022083E0,2.384720147E-1,5.857007578E-2,9.899076462E0,9.902121700E0
1.103059010E0,1.905620247E-1,5.857007578E-2,9.918240547E0,9.920243943E0
1.108095885E0,1.785845160E-1,4.419707134E-2,9.935009003E0,9.936712218E0
1.113132760E0,1.929575205E-1,5.138354376E-2,9.911054611E0,9.913065942E0
1.118169687E0,2.145170271E-1,5.617456511E-2,9.906263351E0,9.908744962E0
1.123213177E0,1.881665289E-1,7.294308394E-2,9.872726440E0,9.874788843E0
1.128250052E0,1.857710183E-1,8.731608838E-2,9.891890526E0,9.894020070E0
1.133286979E0,1.905620247E-1,9.210705012E-2,9.894286156E0,9.896549708E0
1.138323802E0,2.121215165E-1,7.294308394E-2,9.875122070E0,9.877669368E0
1.143360729E0,1.905620247E-1,7.294308394E-2,9.877516747E0,9.879624065E0
1.148397604E0,1.833755225E-1,1.160620376E-1,9.865539551E0,9.867926206E0
1.153441458E0,2.025395185E-1,9.929358214E-2,9.913449287E0,9.916015240E0
1.158478385E0,2.145170271E-1,7.294308394E-2,9.860748291E0,9.863351109E0
1.163515312E0,2.049350291E-1,9.450256079E-2,9.906263351E0,9.908833569E0
1.168552135E0,2.073305249E-1,7.773404568E-2,9.877516747E0,9.879998259E0
1.173589062E0,2.049350291E-1,8.012955636E-2,9.867935181E0,9.870388232E0
1.178625989E0,1.857710183E-1,5.857007578E-2,9.901472092E0,9.903387850E0
1.183632604E0,1.713980287E-1,6.336104125E-2,9.887099266E0,9.888787782E0
1.188669479E0,1.881665289E-1,4.180156067E-2,9.899076462E0,9.900952924E0
1.193706406E0,1.881665289E-1,2.503304742E-2,9.875122070E0,9.876946350E0
1.198743281E0,1.785845160E-1,6.575655192E-2,9.887099266E0,9.888930592E0
1.203780156E0,2.097260207E-1,6.575655192E-2,9.891890526E0,9.894332070E0
1.208817083E0,2.145170271E-1,3.221957758E-2,9.896680832E0,9.899057892E0
1.213867343E0,2.049350291E-1,1.784657501E-2,9.899076462E0,9.901213646E0
1.218904218E0,1.690025181E-1,5.377905443E-2,9.927823067E0,9.929407076E0
1.223941146E0,1.929575205E-1,3.940605000E-2,9.920636177E0,9.922590771E0
1.228978021E0,2.121215165E-1,4.659258202E-2,9.877516747E0,9.879904022E0
1.234014896E0,2.073305249E-1,8.971153945E-2,9.911054611E0,9.913628882E0
1.239051823E0,2.049350291E-1,9.210705012E-2,9.889494896E0,9.892046875E0
1.244100573E0,2.217035294E-1,9.450256079E-2,9.899076462E0,9.902009795E0
1.249137448E0,2.073305249E-1,1.232485697E-1,9.889494896E0,9.892435769E0
1.254174323E0,1.785845160E-1,6.815206259E-2,9.870330811E0,9.872181494E0
1.259211198E0,2.049350291E-1,8.971153945E-2,9.877516747E0,9.880049777E0
1.264248125E0,2.025395185E-1,1.088755652E-1,9.865539551E0,9.868219027E0
1.269285052E0,2.264945209E-1,8.971153945E-2,9.887099266E0,9.890100092E0
1.274329218E0,1.977485269E-1,1.208530590E-1,9.894286156E0,9.896999973E0
1.279366093E0,1.953530163E-1,1.400170773E-1,9.870330811E0,9.873256701E0
1.284402968E0,2.193080187E-1,8.252506703E-2,9.894286156E0,9.897060418E0
1.289439896E0,2.169125229E-1,8.731608838E-2,9.908658981E0,9.911417555E0
1.294476771E0,1.905620247E-1,9.689807147E-2,9.906263351E0,9.908569862E0
1.299513646E0,2.025395185E-1,8.252506703E-2,9.891890526E0,9.894308001E0
1.304572083E0,2.145170271E-1,8.252506703E-2,9.899076462E0,9.901744429E0
1.309608958E0,2.121215165E-1,7.294308394E-2,9.867935181E0,9.870484333E0
1.314645885E0,2.049350291E-1,3.940605000E-2,9.903867722E0,9.906066174E0
1.319682760E0,2.049350291E-1,8.012955636E-2,9.863143921E0,9.865598163E0
1.324719635E0,2.193080187E-1,5.617456511E-2,9.851166725E0,9.853767677E0
1.329756510E0,2.193080187E-1,3.701053932E-2,9.884703636E0,9.887205458E0
1.334794635E0,1.905620247E-1,4.898803309E-2,9.867935181E0,9.869896577E0
1.339831510E0,1.953530163E-1,6.096558645E-2,9.887099266E0,9.889216931E0
1.344868437E0,2.360765189E-1,5.138354376E-2,9.915844917E0,9.918787870E0
1.349905312E0,2.121215165E-1,9.450256079E-2,9.923031807E0,9.925748663E0
1.354942239E0,1.953530163E-1,9.929358214E-2,9.903867722E0,9.906291832E0
1.359979114E0,2.169125229E-1,8.012955636E-2,9.911054611E0,9.913751827E0
1.364977031E0,1.977485269E-1,7.773404568E-2,9.906263351E0,9.908541802E0
1.370013906E0,1.833755225E-1,9.210705012E-2,9.887099266E0,9.889228594E0
1.375050833E0,1.857710183E-1,9.929358214E-2,9.875122070E0,9.877368374E0
1.380087708E0,1.881665289E-1,1.040845439E-1,9.911054611E0,9.913387097E0
1.385124583E0,2.049350291E-1,8.252506703E-2,9.899076462E0,9.901541473E0
1.390161458E0,2.217035294E-1,6.096558645E-2,9.865539551E0,9.868218678E0
1.395178698E0,2.025395185E-1,9.689807147E-2,9.877516747E0,9.880068247E0
1.400215625E0,2.217035294E-1,1.064800546E-1,9.879912376E0,9.882973187E0
1.405252500E0,2.073305249E-1,5.377905443E-2,9.899076462E0,9.901393484E0
1.410289375E0,2.169125229E-1,8.012955636E-2,9.899076462E0,9.901776941E0
1.415326250E0,2.073305249E-1,5.617456511E-2,9.875122070E0,9.877458045E0
1.420363177E0,2.264945209E-1,4.898803309E-2,9.908658981E0,9.911368342E0
1.425421771E0,1.857710183E-1,5.857007578E-2,9.913449287E0,9.915362732E0
1.430458698E0,1.977485269E-1,3.221957758E-2,9.906263351E0,9.908289266E0
1.435495573E0,1.737935245E-1,4.419707134E-2,9.884703636E0,9.886330135E0
1.440532500E0,1.977485269E-1,5.138354376E-2,9.875122070E0,9.877235476E0
1.445569375E0,1.977485269E-1,7.773404568E-2,9.887099266E0,9.889382132E0
1.450606250E0,1.857710183E-1,3.701053932E-2,9.894286156E0,9.896099190E0
1.455624739E0,1.809800267E-1,8.252506703E-2,9.906263351E0,9.908260077E0
1.460661614E0,2.073305249E-1,9.450256079E-2,9.894286156E0,9.896909377E0
1.465698541E0,2.001440227E-1,6.096558645E-2,9.877516747E0,9.879732360E0
1.470735416E0,2.097260207E-1,7.294308394E-2,9.899076462E0,9.901566568E0
1.475772343E0,2.097260207E-1,8.971153945E-2,9.899076462E0,9.901704296E0
1.480809218E0,1.857710183E-1,7.294308394E-2,9.894286156E0,9.896298808E0
1.485850677E0,2.121215165E-1,5.617456511E-2,9.894286156E0,9.896719136E0
1.490887604E0,2.001440227E-1,9.450256079E-2,9.927823067E0,9.930289986E0
1.495924479E0,2.073305249E-1,5.377905443E-2,9.908658981E0,9.910973764E0
1.500961354E0,2.240990251E-1,9.929358214E-2,9.894286156E0,9.897321765E0
1.505998281E0,1.713980287E-1,8.012955636E-2,9.877516747E0,9.879328677E0
1.511035156E0,2.001440227E-1,8.731608838E-2,9.879912376E0,9.882325146E0
1.516088177E0,2.097260207E-1,9.450256079E-2,9.858353615E0,9.861037052E0
1.521125052E0,1.929575205E-1,9.929358214E-2,9.863143921E0,9.865530894E0
1.526161979E0,1.929575205E-1,5.377905443E-2,9.894286156E0,9.896313623E0
1.531198802E0,2.193080187E-1,8.971153945E-2,9.875122070E0,9.877964369E0
1.536235729E0,1.929575205E-1,8.731608838E-2,9.894286156E0,9.896552694E0
1.541272604E0,1.953530163E-1,6.336104125E-2,9.891890526E0,9.894022215E0
1.546312708E0,2.049350291E-1,6.815206259E-2,9.925427437E0,9.927776834E0
1.551349583E0,2.217035294E-1,6.336104125E-2,9.932613373E0,9.935289401E0
1.556386458E0,2.097260207E-1,3.461508825E-2,9.872726440E0,9.875014460E0
1.561423333E0,1.761890203E-1,6.096558645E-2,9.863143921E0,9.864905847E0
1.566460260E0,1.953530163E-1,5.377905443E-2,9.884703636E0,9.886780111E0
1.571497135E0,1.977485269E-1,4.898803309E-2,9.896680832E0,9.898777490E0
1.576559739E0,2.025395185E-1,9.689807147E-2,9.903867722E0,9.906412435E0
1.581596666E0,2.121215165E-1,9.450256079E-2,9.851166725E0,9.853903395E0
1.586633541E0,2.073305249E-1,7.533853501E-2,9.906263351E0,9.908719162E0
1.591670468E0,1.857710183E-1,9.210705012E-2,9.903867722E0,9.906038079E0
1.596707343E0,2.217035294E-1,8.012955636E-2,9.853562355E0,9.856381906E0
1.601744218E0,2.073305249E-1,1.280395836E-1,9.882308006E0,9.885311913E0
1.606738489E0,1.929575205E-1,9.210705012E-2,9.901472092E0,9.903780384E0
1.611775416E0,2.121215165E-1,9.689807147E-2,9.884703636E0,9.887454210E0
1.616812291E0,1.953530163E-1,9.210705012E-2,9.899076462E0,9.901432286E0
1.621849166E0,1.809800267E-1,9.929358214E-2,9.920636177E0,9.922783639E0
1.626886093E0,2.025395185E-1,9.450256079E-2,9.879912376E0,9.882440061E0
1.631922968E0,2.264945209E-1,8.731608838E-2,9.901472092E0,9.904447155E0
1.636971614E0,2.001440227E-1,8.731608838E-2,9.875122070E0,9.877536010E0
1.642008489E0,1.953530163E-1,8.731608838E-2,9.872726440E0,9.875045026E0
1.647045364E0,1.929575205E-1,1.040845439E-1,9.906263351E0,9.908689105E0
1.652082239E0,1.737935245E-1,7.054757327E-2,9.903867722E0,9.905643694E0
1.657119166E0,1.809800267E-1,7.294308394E-2,9.872726440E0,9.874654517E0
1.662156041E0,2.312855273E-1,3.461508825E-2,9.875122070E0,9.877890823E0
1.667203958E0,2.097260207E-1,2.742855810E-2,9.884703636E0,9.886966335E0
1.672240833E0,1.666070223E-1,3.221957758E-2,9.920636177E0,9.922087389E0
1.677277708E0,1.666070223E-1,6.815206259E-2,9.918240547E0,9.919873898E0
1.682314635E0,1.905620247E-1,3.701053932E-2,9.887099266E0,9.889004781E0
1.687351510E0,1.833755225E-1,8.252506703E-2,9.906263351E0,9.908304121E0
1.692388437E0,1.833755225E-1,7.773404568E-2,9.884703636E0,9.886710026E0
1.697405885E0,1.881665289E-1,4.419707134E-2,9.899076462E0,9.900963328E0
1.702442760E0,2.121215165E-1,6.575655192E-2,9.889494896E0,9.891988110E0
1.707479687E0,2.360765189E-1,6.815206259E-2,9.923031807E0,9.926073598E0
1.712516562E0,2.384720147E-1,8.012955636E-2,9.891890526E0,9.895089076E0
1.717553489E0,2.240990251E-1,1.136665866E-1,9.872726440E0,9.875923645E0
1.722590364E0,2.240990251E-1,1.040845439E-1,9.899076462E0,9.902159803E0
1.727622916E0,1.929575205E-1,9.450256079E-2,9.872726440E0,9.875064086E0
1.732659791E0,2.049350291E-1,7.533853501E-2,9.911054611E0,9.913459425E0
1.737696718E0,2.049350291E-1,1.040845439E-1,9.853562355E0,9.856242846E0
1.742733593E0,1.977485269E-1,5.857007578E-2,9.870330811E0,9.872485262E0
1.747770468E0,1.905620247E-1,6.336104125E-2,9.872726440E0,9.874768649E0
1.752807396E0,2.145170271E-1,1.016890332E-1,9.870330811E0,9.873185328E0
1.757864271E0,2.073305249E-1,8.731608838E-2,9.870330811E0,9.872894224E0
1.762901146E0,2.025395185E-1,5.617456511E-2,9.851166725E0,9.853408734E0
1.767938073E0,2.001440227E-1,6.815206259E-2,9.875122070E0,9.877385192E0
1.772974896E0,2.145170271E-1,7.773404568E-2,9.896680832E0,9.899310664E0
1.778011823E0,1.761890203E-1,3.701053932E-2,9.920636177E0,9.922269625E0
1.783048698E0,1.809800267E-1,5.857007578E-2,9.899076462E0,9.900903950E0
1.788101927E0,2.073305249E-1,7.054757327E-2,9.877516747E0,9.879944331E0
1.793138802E0,2.097260207E-1,4.180156067E-2,9.858353615E0,9.860672815E0
1.798175729E0,1.737935245E-1,3.701053932E-2,9.841585159E0,9.843189139E0
1.803212552E0,1.977485269E-1,6.575655192E-2,9.911054611E0,9.913245276E0
1.808249479E0,2.312855273E-1,6.575655192E-2,9.872726440E0,9.875654119E0
1.813286354E0,1.953530163E-1,6.336104125E-2,9.829607010E0,9.831752204E0
1.818279896E0,1.785845160E-1,7.054757327E-2,9.894286156E0,9.896149146E0
1.823316823E0,1.929575205E-1,6.336104125E-2,9.932613373E0,9.934689509E0
1.828353698E0,2.121215165E-1,6.096558645E-2,9.863143921E0,9.865613024E0
1.833390573E0,1.881665289E-1,1.016890332E-1,9.865539551E0,9.867857819E0
1.838427500E0,2.001440227E-1,8.971153945E-2,9.913449287E0,9.915875280E0
1.843464375E0,1.833755225E-1,9.450256079E-2,9.899076462E0,9.901225788E0
1.848551406E0,1.977485269E-1,8.012955636E-2,9.870330811E0,9.872636706E0
1.853588333E0,2.121215165E-1,5.617456511E-2,9.879912376E0,9.882348895E0
1.858625260E0,2.097260207E-1,9.210705012E-2,9.858353615E0,9.861014385E0
1.863662083E0,2.073305249E-1,8.252506703E-2,9.863143921E0,9.865667962E0
1.868699010E0,1.881665289E-1,8.731608838E-2,9.872726440E0,9.874905473E0
1.873735885E0,1.953530163E-1,7.294308394E-2,9.915844917E0,9.918037302E0
1.878724010E0,1.737935245E-1,5.857007578E-2,9.860748291E0,9.862453625E0
1.883760885E0,1.977485269E-1,5.617456511E-2,9.879912376E0,9.882050831E0
1.888797812E0,1.809800267E-1,1.066004205E-2,9.879912376E0,9.881575581E0
1.893834687E0,2.097260207E-1,6.575655192E-2,9.915844917E0,9.918280564E0
1.898871614E0,1.977485269E-1,6.336104125E-2,9.911054611E0,9.913229676E0
1.903908489E0,2.193080187E-1,4.419707134E-2,9.891890526E0,9.894420022E0
1.908973021E0,2.001440227E-1,3.461508825E-2,9.872726440E0,9.874815603E0
1.914009896E0,1.833755225E-1,5.617456511E-2,9.867935181E0,9.869798726E0
1.919046823E0,2.025395185E-1,4.898803309E-2,9.887099266E0,9.889294918E0
1.924083698E0,2.049350291E-1,8.252506703E-2,9.896680832E0,9.899146440E0
1.929120573E0,1.881665289E-1,6.815206259E-2,9.918240547E0,9.920259417E0
1.934157500E0,1.809800267E-1,9.450256079E-2,9.879912376E0,9.882021710E0
1.939186875E0,1.905620247E-1,9.689807147E-2,9.875122070E0,9.877435853E0
1.944223750E0,2.097260207E-1,7.533853501E-2,9.918240547E0,9.920743745E0
1.949260625E0,1.785845160E-1,1.016890332E-1,9.889494896E0,9.891629916E0
1.954297500E0,1.905620247E-1,1.016890332E-1,9.851166725E0,9.853534411E0
1.959334427E0,1.833755225E-1,6.336104125E-2,9.879912376E0,9.881817129E0
1.964371302E0,1.905620247E-1,1.112710759E-1,9.903867722E0,9.906325806E0
1.969408802E0,2.121215165E-1,9.929358214E-2,9.887099266E0,9.889872934E0
1.974445677E0,2.025395185E-1,1.016890332E-1,9.882308006E0,9.884906395E0
1.979482604E0,2.217035294E-1,1.064800546E-1,9.872726440E0,9.875789479E0
1.984519479E0,1.977485269E-1,7.533853501E-2,9.882308006E0,9.884573431E0
1.989556354E0,2.288900167E-1,6.575655192E-2,9.882308006E0,9.885177090E0
1.994593229E0,2.217035294E-1,6.096558645E-2,9.872726440E0,9.875403618E0
1.999620781E0,2.264945209E-1,5.857007578E-2,9.858353615E0,9.861129054E0
2.004657656E0,2.001440227E-1,3.221957758E-2,9.891890526E0,9.893967551E0
2.009694583E0,2.025395185E-1,4.898803309E-2,9.879912376E0,9.882109625E0
2.014731510E0,2.193080187E-1,5.857007578E-2,9.863143921E0,9.865755646E0
2.019768333E0,2.193080187E-1,3.461508825E-2,9.903867722E0,9.906356043E0
2.024805260E0,2.145170271E-1,4.659258202E-2,9.901472092E0,9.903905190E0
2.029869687E0,2.097260207E-1,4.659258202E-2,9.879912376E0,9.882247945E0
2.034906614E0,1.666070223E-1,3.461508825E-2,9.875122070E0,9.876588075E0
2.039943489E0,1.737935245E-1,5.138354376E-2,9.918240547E0,9.919896169E0
2.044980416E0,1.953530163E-1,7.294308394E-2,9.923031807E0,9.925222604E0
2.050017343E0,2.073305249E-1,8.012955636E-2,9.915844917E0,9.918335905E0
2.055054271E0,2.264945209E-1,6.336104125E-2,9.925427437E0,9.928213545E0
2.060115521E0,2.384720147E-1,1.064800546E-1,9.915844917E0,9.919283610E0
2.065152448E0,2.001440227E-1,7.773404568E-2,9.879912376E0,9.882245128E0
2.070189375E0,1.953530163E-1,4.898803309E-2,9.887099266E0,9.889150344E0
2.075226250E0,2.001440227E-1,7.054757327E-2,9.865539551E0,9.867821706E0
2.080263177E0,1.833755225E-1,9.689807147E-2,9.889494896E0,9.891669481E0
2.085300052E0,1.881665289E-1,1.016890332E-1,9.884703636E0,9.887017411E0
2.090300781E0,1.929575205E-1,7.773404568E-2,9.894286156E0,9.896472792E0
2.095337708E0,2.025395185E-1,5.857007578E-2,9.899076462E0,9.901321503E0
2.100374583E0,2.097260207E-1,7.294308394E-2,9.896680832E0,9.899171540E0
2.105411510E0,2.360765189E-1,7.054757327E-2,9.908658981E0,9.911721944E0
2.110448437E0,2.049350291E-1,7.773404568E-2,9.887099266E0,9.889528444E0
2.115485312E0,1.833755225E-1,5.857007578E-2,9.906263351E0,9.908133559E0
2.120549010E0,1.737935245E-1,4.180156067E-2,9.884703636E0,9.886319716E0
2.125585937E0,2.288900167E-1,6.096558645E-2,9.879912376E0,9.882751439E0
2.130622864E0,2.169125229E-1,6.096558645E-2,9.899076462E0,9.901640402E0
2.135659791E0,2.001440227E-1,2.263753675E-2,9.899076462E0,9.901125435E0
2.140696666E0,1.929575205E-1,5.857007578E-2,9.903867722E0,9.905920397E0
2.145733593E0,2.121215165E-1,7.533853501E-2,9.887099266E0,9.889661437E0
2.150721458E0,2.001440227E-1,6.096558645E-2,9.867935181E0,9.870152945E0
2.155758385E0,1.977485269E-1,3.701053932E-2,9.863143921E0,9.865195501E0
2.160795260E0,2.073305249E-1,4.419707134E-2,9.903867722E0,9.906136238E0
2.165832187E0,1.953530163E-1,4.659258202E-2,9.901472092E0,9.903508633E0
2.170869114E0,1.881665289E-1,8.971153945E-2,9.865539551E0,9.867741658E0
2.175906041E0,1.833755225E-1,9.450256079E-2,9.901472092E0,9.903620898E0
2.180959375E0,2.025395185E-1,1.112710759E-1,9.930217743E0,9.932906318E0
2.185996250E0,1.929575205E-1,1.112710759E-1,9.887099266E0,9.889607968E0
2.191033177E0,1.761890203E-1,1.088755652E-1,9.925427437E0,9.927588139E0
2.196070104E0,1.929575205E-1,9.450256079E-2,9.911054611E0,9.913383219E0
2.201107031E0,1.977485269E-1,8.012955636E-2,9.899076462E0,9.901375663E0
2.206143906E0,1.785845160E-1,5.138354376E-2,9.884703636E0,9.886450256E0
2.211210677E0,1.905620247E-1,5.377905443E-2,9.870330811E0,9.872316667E0
2.216247552E0,1.666070223E-1,5.138354376E-2,9.937404633E0,9.938933997E0
2.221284479E0,1.306745261E-1,8.731608838E-2,9.908658981E0,9.909905284E0
2.226321406E0,1.594205201E-1,4.419707134E-2,9.887099266E0,9.888483209E0
2.231358333E0,1.953530163E-1,5.617456511E-2,9.839189529E0,9.841288990E0
2.236395208E0,2.624270320E-1,2.024208568E-2,9.903867722E0,9.907364611E0
2.241407552E0,3.031505346E-1,8.252506703E-2,9.930217743E0,9.935186715E0
2.246444427E0,2.815910280E-1,6.096558645E-2,9.891890526E0,9.896085513E0
2.251481354E0,2.815910280E-1,8.971153945E-2,9.867935181E0,9.872359718E0
2.256518281E0,2.552405298E-1,1.112710759E-1,9.879912376E0,9.883835164E0
2.261555208E0,2.097260207E-1,1.136665866E-1,9.899076462E0,9.901950308E0
2.266592083E0,1.522340178E-1,1.472035497E-1,9.896680832E0,9.898946185E0
2.271612552E0,1.043240204E-1,1.280395836E-1,9.879912376E0,9.881292739E0
2.276649479E0,4.683202133E-2,1.328305453E-1,9.887099266E0,9.888102401E0
2.281686354E0,5.162302405E-2,1.280395836E-1,9.911054611E0,9.912016070E0
2.286723281E0,1.282790303E-1,1.160620376E-1,9.918240547E0,9.919749062E0
2.291760208E0,1.450475305E-1,1.016890332E-1,9.896680832E0,9.898266057E0
2.296797083E0,1.785845160E-1,6.336104125E-2,9.906263351E0,9.908075527E0
2.301829062E0,2.408675253E-1,3.940605000E-2,9.913449287E0,9.916453337E0
2.306865989E0,2.839865386E-1,2.503304742E-2,9.908658981E0,9.912759344E0
2.311902916E0,3.271055222E-1,1.784657501E-2,9.884703636E0,9.890130560E0
2.316939843E0,3.247100413E-1,1.545106340E-2,9.889494896E0,9.894836262E0
2.321976718E0,2.959640324E-1,2.503304742E-2,9.853562355E0,9.858037961E0
2.327013593E0,2.552405298E-1,4.898803309E-2,9.863143921E0,9.866567567E0
2.332084218E0,1.881665289E-1,2.263753675E-2,9.887099266E0,9.888915562E0
2.337121093E0,1.642115265E-1,5.377905443E-2,9.901472092E0,9.902979713E0
2.342158021E0,1.115105227E-1,1.136665866E-1,9.923031807E0,9.924309292E0
2.347194948E0,8.755552769E-2,8.492057770E-2,9.935009003E0,9.935757714E0
2.352231875E0,1.115105227E-1,9.210705012E-2,9.887099266E0,9.888157068E0
2.357268750E0,1.163015217E-1,8.492057770E-2,9.865539551E0,9.866590504E0
2.362261614E0,1.258835196E-1,9.689807147E-2,9.891890526E0,9.893166029E0
2.367298541E0,1.809800267E-1,1.064800546E-1,9.915844917E0,9.918067967E0
2.372335416E0,2.504495382E-1,1.040845439E-1,9.865539551E0,9.869266902E0
2.377372396E0,2.911730409E-1,8.731608838E-2,9.855957985E0,9.860644687E0
2.382409271E0,3.103370368E-1,7.054757327E-2,9.877516747E0,9.882642517E0
2.387446146E0,3.031505346E-1,8.492057770E-2,9.879912376E0,9.884926925E0
2.392533125E0,2.839865386E-1,4.898803309E-2,9.896680832E0,9.900875702E0
2.397570000E0,2.528450191E-1,5.617456511E-2,9.882308006E0,9.885701681E0
2.402606927E0,2.049350291E-1,5.377905443E-2,9.891890526E0,9.894159324E0
2.407643854E0,1.833755225E-1,6.096558645E-2,9.872726440E0,9.874617499E0
2.412680729E0,1.426520199E-1,8.492057770E-2,9.870330811E0,9.871726871E0
2.417717656E0,9.234652668E-2,5.857007578E-2,9.877516747E0,9.878122059E0
2.422722343E0,7.797352225E-2,5.857007578E-2,9.937404633E0,9.937883133E0
2.427759271E0,1.019285247E-1,7.054757327E-2,9.918240547E0,9.919015170E0
2.432796146E0,1.570250243E-1,7.533853501E-2,9.927823067E0,9.929350613E0
2.437833073E0,1.809800267E-1,5.857007578E-2,9.918240547E0,9.920064505E0
2.442870000E0,2.169125229E-1,6.336104125E-2,9.896680832E0,9.899260435E0
2.447906875E0,2.696135342E-1,4.180156067E-2,9.872726440E0,9.876495643E0
2.452960416E0,3.007550240E-1,3.701053932E-2,9.891890526E0,9.896530783E0
2.457997343E0,2.959640324E-1,2.742855810E-2,9.877516747E0,9.881987862E0
2.463034271E0,2.791955173E-1,3.701053932E-2,9.918240547E0,9.922238430E0
2.468071198E0,2.863820195E-1,3.461508825E-2,9.884703636E0,9.888911914E0
2.473108125E0,2.073305249E-1,7.533853501E-2,9.884703636E0,9.887164802E0
2.478145000E0,1.737935245E-1,5.857007578E-2,9.913449287E0,9.915145557E0
2.483152291E0,1.737935245E-1,1.136665866E-1,9.879912376E0,9.882094558E0
2.488189218E0,1.186970249E-1,1.304350346E-1,9.865539551E0,9.867115734E0
2.493226146E0,1.067195237E-1,1.424125284E-1,9.889494896E0,9.891095980E0
2.498263021E0,1.234880239E-1,1.160620376E-1,9.884703636E0,9.886156263E0
2.503299948E0,1.354655176E-1,9.929358214E-2,9.884703636E0,9.886130492E0
2.508336823E0,1.474430263E-1,9.929358214E-2,9.949381828E0,9.950969673E0
2.513368958E0,2.312855273E-1,7.054757327E-2,9.915844917E0,9.918792788E0
2.518405885E0,2.528450191E-1,8.492057770E-2,9.884703636E0,9.888301577E0
2.523442812E0,3.007550240E-1,6.336104125E-2,9.896680832E0,9.901452403E0
2.528479687E0,2.959640324E-1,6.096558645E-2,9.848771095E0,9.853405685E0
2.533516614E0,2.839865386E-1,5.138354376E-2,9.865539551E0,9.869759838E0
2.538553541E0,2.720090151E-1,7.054757327E-2,9.911054611E0,9.915037538E0
2.543607604E0,2.193080187E-1,4.659258202E-2,9.889494896E0,9.892035997E0
2.548644531E0,1.953530163E-1,3.221957758E-2,9.906263351E0,9.908241746E0
2.553681458E0,1.881665289E-1,6.096558645E-2,9.908658981E0,9.910632990E0
2.558718333E0,1.258835196E-1,5.377905443E-2,9.901472092E0,9.902418312E0
2.563755260E0,1.282790303E-1,8.971153945E-2,9.901472092E0,9.902709389E0
2.568792135E0,1.186970249E-1,8.252506703E-2,9.923031807E0,9.924084825E0
2.573819271E0,1.354655176E-1,6.575655192E-2,9.920636177E0,9.921778923E0
2.578856198E0,1.594205201E-1,4.419707134E-2,9.855957985E0,9.857346300E0
2.583893125E0,2.097260207E-1,6.815206259E-2,9.879912376E0,9.882373109E0
2.588930000E0,2.552405298E-1,1.064800546E-1,9.911054611E0,9.914912467E0
2.593966927E0,2.528450191E-1,7.533853501E-2,9.877516747E0,9.881039600E0
2.599003854E0,2.983595133E-1,5.617456511E-2,9.846375465E0,9.851054958E0
2.604034375E0,2.887775302E-1,9.450256079E-2,9.891890526E0,9.896556036E0
2.609071302E0,2.528450191E-1,9.929358214E-2,9.896680832E0,9.900408138E0
2.614108229E0,2.097260207E-1,9.929358214E-2,9.889494896E0,9.892216815E0
2.619145104E0,1.929575205E-1,9.689807147E-2,9.894286156E0,9.896641873E0
2.624182031E0,1.402565241E-1,9.210705012E-2,9.887099266E0,9.888523019E0
2.629218906E0,1.330700219E-1,6.575655192E-2,9.853562355E0,9.854680240E0
2.634288802E0,1.186970249E-1,9.210705012E-2,9.913449287E0,9.914587710E0
2.639325729E0,1.139060259E-1,7.773404568E-2,9.899076462E0,9.900036968E0
2.644362656E0,1.330700219E-1,8.012955636E-2,9.879912376E0,9.881133383E0
2.649399583E0,1.546295285E-1,8.731608838E-2,9.899076462E0,9.900669128E0
2.654436510E0,2.073305249E-1,4.419707134E-2,9.911054611E0,9.913321483E0
2.659473437E0,2.432630211E-1,5.138354376E-2,9.870330811E0,9.873461778E0
2.664532343E0,2.432630211E-1,4.180156067E-2,9.875122070E0,9.878206324E0
2.669569218E0,2.887775302E-1,2.024208568E-2,9.851166725E0,9.855419222E0
2.674606146E0,2.672180235E-1,2.982406877E-2,9.901472092E0,9.905122136E0
2.679643073E0,2.672180235E-1,2.263753675E-2,9.877516747E0,9.881156562E0
2.684679948E0,2.480540127E-1,3.461508825E-2,9.903867722E0,9.907034109E0
2.689716875E0,1.761890203E-1,6.575655192E-2,9.911054611E0,9.912838645E0
2.694772135E0,1.761890203E-1,5.138354376E-2,9.865539551E0,9.867246499E0
2.699809010E0,1.378610283E-1,9.450256079E-2,9.887099266E0,9.888511935E0
2.704845937E0,1.163015217E-1,7.533853501E-2,9.925427437E0,9.926394700E0
2.709882812E0,1.091150269E-1,1.064800546E-1,9.906263351E0,9.907436484E0
2.714919739E0,1.210925207E-1,1.184575483E-1,9.918240547E0,9.919687049E0
2.719956666E0,1.666070223E-1,1.016890332E-1,9.935009003E0,9.936926207E0
2.724939896E0,1.977485269E-1,1.064800546E-1,9.903867722E0,9.906413999E0
2.729976823E0,2.264945209E-1,1.016890332E-1,9.887099266E0,9.890215990E0
2.735013698E0,2.528450191E-1,9.210705012E-2,9.879912376E0,9.883576421E0
2.740050625E0,2.791955173E-1,4.898803309E-2,9.853562355E0,9.857638716E0
2.745087552E0,2.791955173E-1,7.773404568E-2,9.846375465E0,9.850639701E0
2.750124479E0,2.576360404E-1,7.533853501E-2,9.867935181E0,9.871585331E0
2.755159114E0,2.384720147E-1,9.689807147E-2,9.860748291E0,9.864107410E0
2.760196041E0,2.097260207E-1,5.138354376E-2,9.855957985E0,9.858323036E0
2.765232916E0,1.785845160E-1,6.815206259E-2,9.896680832E0,9.898526588E0
2.770269843E0,1.426520199E-1,8.492057770E-2,9.901472092E0,9.902863762E0
2.775306771E0,1.258835196E-1,8.731608838E-2,9.899076462E0,9.900261893E0
2.780343646E0,1.043240204E-1,4.898803309E-2,9.901472092E0,9.902142844E0
2.785397708E0,1.474430263E-1,3.701053932E-2,9.932613373E0,9.933776605E0
2.790434687E0,1.594205201E-1,5.138354376E-2,9.963755608E0,9.965163369E0
2.795471562E0,1.857710183E-1,6.336104125E-2,9.920636177E0,9.922577672E0
2.800508489E0,2.193080187E-1,8.252506703E-2,9.867935181E0,9.870716850E0
2.805545364E0,2.408675253E-1,9.929358214E-2,9.860748291E0,9.864189436E0
2.810582291E0,2.720090151E-1,8.731608838E-2,9.851166725E0,9.855308156E0
2.815596198E0,2.768000364E-1,6.336104125E-2,9.877516747E0,9.881597541E0
2.820633125E0,2.863820195E-1,6.336104125E-2,9.896680832E0,9.901026248E0
2.825670052E0,2.648225129E-1,9.210705012E-2,9.867935181E0,9.871917717E0
2.830706927E0,2.193080187E-1,8.731608838E-2,9.903867722E0,9.906680370E0
2.835743854E0,1.737935245E-1,9.689807147E-2,9.911054611E0,9.913051848E0
2.840780729E0,1.354655176E-1,1.232485697E-1,9.867935181E0,9.869634535E0
2.845838021E0,1.306745261E-1,9.210705012E-2,9.915844917E0,9.917133657E0
2.850874948E0,1.163015217E-1,1.016890332E-1,9.899076462E0,9.900281890E0
2.855911875E0,1.450475305E-1,9.929358214E-2,9.894286156E0,9.895847439E0
2.860948750E0,1.666070223E-1,1.112710759E-1,9.891890526E0,9.893919210E0
2.865985677E0,1.713980287E-1,5.377905443E-2,9.879912376E0,9.881545326E0
2.871022552E0,2.240990251E-1,5.138354376E-2,9.875122070E0,9.877798163E0
2.876063854E0,2.624270320E-1,7.773404568E-2,9.915844917E0,9.919621513E0
2.881100729E0,2.504495382E-1,6.096558645E-2,9.870330811E0,9.873695969E0
2.886137656E0,2.696135342E-1,3.221957758E-2,9.870330811E0,9.874065012E0
2.891174583E0,2.720090151E-1,4.898803309E-2,9.855957985E0,9.859832480E0
2.896211458E0,2.312855273E-1,2.742855810E-2,9.877516747E0,9.880262264E0
2.901248385E0,2.025395185E-1,2.503304742E-2,9.889494896E0,9.891600387E0
2.906291510E0,1.642115265E-1,5.138354376E-2,9.875122070E0,9.876620961E0
2.911328437E0,1.761890203E-1,4.898803309E-2,9.882308006E0,9.883999895E0
2.916365364E0,1.498385221E-1,5.857007578E-2,9.860748291E0,9.862060581E0
2.921402291E0,1.378610283E-1,6.336104125E-2,9.887099266E0,9.888263355E0
2.926439166E0,1.450475305E-1,8.012955636E-2,9.908658981E0,9.910044518E0
2.931476093E0,1.474430263E-1,5.377905443E-2,9.901472092E0,9.902715850E0
2.936504375E0,1.690025181E-1,9.450256079E-2,9.927823067E0,9.929711145E0
2.941541302E0,2.193080187E-1,8.492057770E-2,9.923031807E0,9.925818241E0
2.946578229E0,2.240990251E-1,9.689807147E-2,9.851166725E0,9.854191771E0
2.951615104E0,2.552405298E-1,9.689807147E-2,9.903867722E0,9.907630030E0
2.956652031E0,2.648225129E-1,8.971153945E-2,9.911054611E0,9.914997863E0
2.961688958E0,2.624270320E-1,4.659258202E-2,9.889494896E0,9.893085874E0
2.966703854E0,2.384720147E-1,5.857007578E-2,9.867935181E0,9.870990026E0
2.971740781E0,2.264945209E-1,7.773404568E-2,9.863143921E0,9.866050393E0
2.976777708E0,2.169125229E-1,6.336104125E-2,9.882308006E0,9.884891360E0
2.981814583E0,1.977485269E-1,6.815206259E-2,9.918240547E0,9.920445793E0
2.986851510E0,1.498385221E-1,7.533853501E-2,9.923031807E0,9.924448988E0
2.991888437E0,1.426520199E-1,3.940605000E-2,9.937404633E0,9.938506591E0
2.996948021E0,1.426520199E-1,5.857007578E-2,9.911054611E0,9.912254212E0
3.001984896E0,1.737935245E-1,5.617456511E-2,9.901472092E0,9.903156535E0
3.007021823E0,2.025395185E-1,7.294308394E-2,9.889494896E0,9.891837658E0
3.012058750E0,2.049350291E-1,5.138354376E-2,9.853562355E0,9.855827196E0
3.017095677E0,2.025395185E-1,4.898803309E-2,9.901472092E0,9.903664557E0
3.022132552E0,2.360765189E-1,5.857007578E-2,9.915844917E0,9.918827703E0
3.027162604E0,3.031505346E-1,5.617456511E-2,9.882308006E0,9.887116231E0
3.032199531E0,2.768000364E-1,5.857007578E-2,9.863143921E0,9.867201058E0
3.037236406E0,2.720090151E-1,5.857007578E-2,9.875122070E0,9.879041212E0
3.042273333E0,2.217035294E-1,8.492057770E-2,9.875122070E0,9.877975494E0
3.047310260E0,2.001440227E-1,8.252506703E-2,9.896680832E0,9.899048414E0
3.052347135E0,1.761890203E-1,1.208530590E-1,9.899076462E0,9.901381865E0
3.057390104E0,1.402565241E-1,1.088755652E-1,9.889494896E0,9.891088670E0
3.062427083E0,1.378610283E-1,1.160620376E-1,9.877516747E0,9.879160548E0
3.067463958E0,1.498385221E-1,9.210705012E-2,9.879912376E0,9.881477817E0
3.072500833E0,1.690025181E-1,1.136665866E-1,9.901472092E0,9.903566606E0
3.077537760E0,1.522340178E-1,1.136665866E-1,9.915844917E0,9.917664832E0
3.082574635E0,2.193080187E-1,8.492057770E-2,9.913449287E0,9.916238414E0
3.087611979E0,2.097260207E-1,4.898803309E-2,9.935009003E0,9.937343142E0
3.092648854E0,2.240990251E-1,4.419707134E-2,9.887099266E0,9.889737390E0
3.097685729E0,2.791955173E-1,2.024208568E-2,9.894286156E0,9.898245219E0
3.102722656E0,2.624270320E-1,3.701053932E-2,9.891890526E0,9.895440157E0
3.107759583E0,2.121215165E-1,6.575655192E-2,9.887099266E0,9.889593084E0
3.112796510E0,2.145170271E-1,6.336104125E-2,9.860748291E0,9.863284901E0
3.117807083E0,2.097260207E-1,7.054757327E-2,9.882308006E0,9.884784949E0
3.122843958E0,1.953530163E-1,5.138354376E-2,9.899076462E0,9.901137201E0
3.127880885E0,1.642115265E-1,7.054757327E-2,9.882308006E0,9.883924014E0
3.132917812E0,1.546295285E-1,5.377905443E-2,9.913449287E0,9.914801019E0
3.137954687E0,1.546295285E-1,4.659258202E-2,9.882308006E0,9.883627507E0
3.142991614E0,1.139060259E-1,3.461508825E-2,9.906263351E0,9.906978670E0
3.148082604E0,1.618160307E-1,3.940605000E-2,9.891890526E0,9.893292447E0
3.153119531E0,1.809800267E-1,4.419707134E-2,9.853562355E0,9.855323345E0
3.158156458E0,1.953530163E-1,6.336104125E-2,9.889494896E0,9.891627102E0
3.163193333E0,2.384720147E-1,6.575655192E-2,9.915844917E0,9.918930046E0
3.168230260E0,2.480540127E-1,8.492057770E-2,9.889494896E0,9.892969807E0
3.173267135E0,2.672180235E-1,6.336104125E-2,9.887099266E0,9.890912596E0
3.178272968E0,2.528450191E-1,7.773404568E-2,9.884703636E0,9.888242471E0
3.183309843E0,2.480540127E-1,7.773404568E-2,9.884703636E0,9.888121123E0
3.188346718E0,2.121215165E-1,9.450256079E-2,9.875122070E0,9.877852103E0
3.193383698E0,1.929575205E-1,7.533853501E-2,9.887099266E0,9.889268952E0
3.198420573E0,1.618160307E-1,9.210705012E-2,9.915844917E0,9.917592881E0
3.203457448E0,1.402565241E-1,7.533853501E-2,9.899076462E0,9.900356690E0
3.208523125E0,1.282790303E-1,9.210705012E-2,9.894286156E0,9.895546359E0
3.213560052E0,1.642115265E-1,8.971153945E-2,9.906263351E0,9.908030439E0
3.218596979E0,1.881665289E-1,5.138354376E-2,9.863143921E0,9.865072474E0
3.223633854E0,1.881665289E-1,7.533853501E-2,9.860748291E0,9.862831206E0
3.228670781E0,1.929575205E-1,6.815206259E-2,9.870330811E0,9.872451956E0
3.233707656E0,2.264945209E-1,4.659258202E-2,9.877516747E0,9.880223060E0
3.238692291E0,2.672180235E-1,2.982406877E-2,9.925427437E0,9.929068675E0
3.243729166E0,2.480540127E-1,5.617456511E-2,9.848771095E0,9.852054530E0
3.248766093E0,2.336810231E-1,6.815206259E-2,9.865539551E0,9.868542048E0
3.253802968E0,2.480540127E-1,4.180156067E-2,9.925427437E0,9.928614605E0
3.258839896E0,2.528450191E-1,4.898803309E-2,9.944591522E0,9.947925963E0
3.263876823E0,1.977485269E-1,5.617456511E-2,9.879912376E0,9.882050831E0
3.268926666E0,2.049350291E-1,7.773404568E-2,9.906263351E0,9.908687831E0
3.273963541E0,1.498385221E-1,1.088755652E-1,9.913449287E0,9.915179385E0
3.279000468E0,1.306745261E-1,1.376215667E-1,9.911054611E0,9.912871382E0
3.284037343E0,1.570250243E-1,7.773404568E-2,9.889494896E0,9.891046898E0
3.289074271E0,1.809800267E-1,7.294308394E-2,9.899076462E0,9.900999407E0
3.294111146E0,2.025395185E-1,7.773404568E-2,9.889494896E0,9.891874147E0
3.299159114E0,1.881665289E-1,9.210705012E-2,9.899076462E0,9.901293105E0
3.304195989E0,2.145170271E-1,1.016890332E-1,9.899076462E0,9.901922693E0
3.309232864E0,2.384720147E-1,7.054757327E-2,9.875122070E0,9.878252971E0
3.314269791E0,2.504495382E-1,8.492057770E-2,9.867935181E0,9.871478167E0
3.319306718E0,2.360765189E-1,5.377905443E-2,9.908658981E0,9.911616776E0
3.324343646E0,2.264945209E-1,5.138354376E-2,9.851166725E0,9.853904093E0
3.329379323E0,2.217035294E-1,6.336104125E-2,9.870330811E0,9.873023721E0
3.334416198E0,1.929575205E-1,6.336104125E-2,9.879912376E0,9.881999585E0
3.339453125E0,2.025395185E-1,4.180156067E-2,9.889494896E0,9.891657036E0
3.344490000E0,1.881665289E-1,5.138354376E-2,9.918240547E0,9.920158389E0
3.349526927E0,1.546295285E-1,6.575655192E-2,9.920636177E0,9.922059079E0
3.354563854E0,1.570250243E-1,7.294308394E-2,9.891890526E0,9.893405669E0
3.359623333E0,1.618160307E-1,6.336104125E-2,9.901472092E0,9.902996952E0
3.364660260E0,1.953530163E-1,6.096558645E-2,9.911054611E0,9.913167158E0
3.369697135E0,2.217035294E-1,7.054757327E-2,9.935009003E0,9.937732805E0
3.374734062E0,2.264945209E-1,3.461508825E-2,9.887099266E0,9.889753782E0
3.379770937E0,2.001440227E-1,7.533853501E-2,9.913449287E0,9.915755659E0
3.384807864E0,2.432630211E-1,8.252506703E-2,9.889494896E0,9.892830565E0
3.389853750E0,2.504495382E-1,6.815206259E-2,9.872726440E0,9.876137759E0
3.394890625E0,2.456585169E-1,8.971153945E-2,9.870330811E0,9.873794943E0
3.399927552E0,2.240990251E-1,8.971153945E-2,9.853562355E0,9.856518636E0
3.404964427E0,2.025395185E-1,9.689807147E-2,9.891890526E0,9.894438320E0
3.410001302E0,1.857710183E-1,9.210705012E-2,9.901472092E0,9.903642974E0
3.415038229E0,1.761890203E-1,8.252506703E-2,9.887099266E0,9.889013341E0
3.420065208E0,1.402565241E-1,9.929358214E-2,9.889494896E0,9.890987838E0
3.425102135E0,1.666070223E-1,8.971153945E-2,9.848771095E0,9.850588721E0
3.430139010E0,1.857710183E-1,1.064800546E-1,9.908658981E0,9.910972287E0
3.435175937E0,1.809800267E-1,4.898803309E-2,9.908658981E0,9.910432705E0
3.440212864E0,2.001440227E-1,3.701053932E-2,9.875122070E0,9.877219412E0
3.445249791E0,2.456585169E-1,4.180156067E-2,9.887099266E0,9.890238995E0
3.450239062E0,2.336810231E-1,2.263753675E-2,9.841585159E0,9.844385086E0
3.455275937E0,2.480540127E-1,3.701053932E-2,9.882308006E0,9.885489978E0
3.460312864E0,2.672180235E-1,4.898803309E-2,9.896680832E0,9.900408920E0
3.465349791E0,2.408675253E-1,6.575655192E-2,9.899076462E0,9.902224795E0
3.470386666E0,2.025395185E-1,5.857007578E-2,9.867935181E0,9.870187305E0
3.475423593E0,1.833755225E-1,7.533853501E-2,9.891890526E0,9.893876927E0
3.480512604E0,1.977485269E-1,5.617456511E-2,9.877516747E0,9.879655720E0
3.485549479E0,1.570250243E-1,6.096558645E-2,9.887099266E0,9.888534045E0
3.490586406E0,1.570250243E-1,1.160620376E-1,9.918240547E0,9.920162439E0
3.495623281E0,1.713980287E-1,9.210705012E-2,9.911054611E0,9.912964466E0
3.500660208E0,1.857710183E-1,6.815206259E-2,9.913449287E0,9.915423962E0
3.505697083E0,1.785845160E-1,8.252506703E-2,9.889494896E0,9.891451466E0
3.510717656E0,1.833755225E-1,6.575655192E-2,9.887099266E0,9.889018273E0
3.515754531E0,2.360765189E-1,8.731608838E-2,9.903867722E0,9.907065765E0
3.520791458E0,2.624270320E-1,7.533853501E-2,9.908658981E0,9.912419818E0
3.525828333E0,2.217035294E-1,4.419707134E-2,9.877516747E0,9.880103386E0
3.530865260E0,2.384720147E-1,7.054757327E-2,9.901472092E0,9.904594663E0
3.535902187E0,2.408675253E-1,8.492057770E-2,9.932613373E0,9.935896391E0
3.540933229E0,2.360765189E-1,8.252506703E-2,9.863143921E0,9.866313927E0
3.545970156E0,2.097260207E-1,6.096558645E-2,9.891890526E0,9.894301389E0
3.551007031E0,1.881665289E-1,7.294308394E-2,9.901472092E0,9.903528508E0
3.556043958E0,2.049350291E-1,7.054757327E-2,9.894286156E0,9.896659732E0
3.561080833E0,1.929575205E-1,5.617456511E-2,9.889494896E0,9.891536659E0
3.566117760E0,1.713980287E-1,8.252506703E-2,9.901472092E0,9.903299312E0
3.571121614E0,1.785845160E-1,7.773404568E-2,9.889494896E0,9.891412655E0
3.576158489E0,2.193080187E-1,4.898803309E-2,9.884703636E0,9.887257547E0
3.581195416E0,2.360765189E-1,8.012955636E-2,9.882308006E0,9.885452160E0
3.586232291E0,2.121215165E-1,4.180156067E-2,9.915844917E0,9.918201618E0
3.591269218E0,2.169125229E-1,7.773404568E-2,9.851166725E0,9.853861145E0
3.596306146E0,2.240990251E-1,6.815206259E-2,9.877516747E0,9.880293627E0
3.601379010E0,2.552405298E-1,6.815206259E-2,9.899076462E0,9.902601033E0
3.606415937E0,2.288900167E-1,7.533853501E-2,9.887099266E0,9.890035310E0
3.611452864E0,2.240990251E-1,4.419707134E-2,9.899076462E0,9.901711395E0
3.616489739E0,2.264945209E-1,7.054757327E-2,9.894286156E0,9.897129647E0
3.621526666E0,1.666070223E-1,1.040845439E-1,9.930217743E0,9.932160687E0
3.626563541E0,2.025395185E-1,7.533853501E-2,9.903867722E0,9.906225012E0
3.631595729E0,1.881665289E-1,8.731608838E-2,9.877516747E0,9.879694723E0
3.636632656E0,1.594205201E-1,1.232485697E-1,9.908658981E0,9.910707741E0
3.641669479E0,1.618160307E-1,7.294308394E-2,9.925427437E0,9.927014401E0
3.646706406E0,1.977485269E-1,9.450256079E-2,9.877516747E0,9.879947990E0
3.651743333E0,2.240990251E-1,8.492057770E-2,9.908658981E0,9.911556623E0
3.656780208E0,1.833755225E-1,6.815206259E-2,9.860748291E0,9.862688687E0
3.661809479E0,2.097260207E-1,6.815206259E-2,9.894286156E0,9.896743315E0
3.666846354E0,2.384720147E-1,6.336104125E-2,9.887099266E0,9.890177724E0
3.671883281E0,2.576360404E-1,6.096558645E-2,9.879912376E0,9.883458995E0
3.676920208E0,2.432630211E-1,6.096558645E-2,9.872726440E0,9.875911151E0
3.681957083E0,2.169125229E-1,8.252506703E-2,9.863143921E0,9.865873982E0
3.686994010E0,1.857710183E-1,3.221957758E-2,9.865539551E0,9.867341060E0
3.692026198E0,2.049350291E-1,4.419707134E-2,9.882308006E0,9.884531515E0
3.697063125E0,1.785845160E-1,5.857007578E-2,9.908658981E0,9.910441246E0
3.702100000E0,1.666070223E-1,7.294308394E-2,9.894286156E0,9.895957615E0
3.707136927E0,1.594205201E-1,6.815206259E-2,9.915844917E0,9.917360537E0
3.712173802E0,1.618160307E-1,6.096558645E-2,9.863143921E0,9.864659611E0
3.717210729E0,1.737935245E-1,6.336104125E-2,9.903867722E0,9.905595119E0
3.722231354E0,2.001440227E-1,3.940605000E-2,9.903867722E0,9.905968217E0
3.727268229E0,2.193080187E-1,7.533853501E-2,9.896680832E0,9.899397123E0
3.732305156E0,2.145170271E-1,5.617456511E-2,9.884703636E0,9.887190658E0
3.737342083E0,2.336810231E-1,6.815206259E-2,9.882308006E0,9.885305410E0
3.742378958E0,1.977485269E-1,7.054757327E-2,9.887099266E0,9.889328255E0
3.747415885E0,2.217035294E-1,7.773404568E-2,9.896680832E0,9.899469002E0
3.752499427E0,2.240990251E-1,9.210705012E-2,9.920636177E0,9.923594421E0
3.757536354E0,2.121215165E-1,8.731608838E-2,9.908658981E0,9.911313861E0
3.762573229E0,2.001440227E-1,7.773404568E-2,9.896680832E0,9.899009632E0
3.767610104E0,1.809800267E-1,7.054757327E-2,9.906263351E0,9.908167556E0
3.772647031E0,1.833755225E-1,7.294308394E-2,9.860748291E0,9.862722957E0
3.777683906E0,1.785845160E-1,9.450256079E-2,9.896680832E0,9.898743084E0
3.782694062E0,1.785845160E-1,6.336104125E-2,9.918240547E0,9.920050534E0
3.787730937E0,1.546295285E-1,8.731608838E-2,9.901472092E0,9.903064373E0
3.792767864E0,1.857710183E-1,4.659258202E-2,9.884703636E0,9.886558942E0
3.797804739E0,1.953530163E-1,4.659258202E-2,9.884703636E0,9.886743632E0
3.802841666E0,2.217035294E-1,8.252506703E-2,9.884703636E0,9.887534011E0
3.807878593E0,2.312855273E-1,4.659258202E-2,9.889494896E0,9.892308788E0
3.812943593E0,2.672180235E-1,6.096558645E-2,9.913449287E0,9.917237471E0
3.817980521E0,2.480540127E-1,7.533853501E-2,9.858353615E0,9.861761642E0
3.823017448E0,2.217035294E-1,7.294308394E-2,9.843979836E0,9.846746272E0
3.828054323E0,2.049350291E-1,7.054757327E-2,9.851166725E0,9.853550689E0
3.833091250E0,1.642115265E-1,4.419707134E-2,9.891890526E0,9.893352161E0
3.838128177E0,1.761890203E-1,8.971153945E-2,9.908658981E0,9.910631339E0
3.843126302E0,1.785845160E-1,7.773404568E-2,9.908658981E0,9.910573032E0
3.848163229E0,1.809800267E-1,8.492057770E-2,9.899076462E0,9.901094893E0
3.853200104E0,1.761890203E-1,1.112710759E-1,9.911054611E0,9.913245045E0
3.858236979E0,1.761890203E-1,9.929358214E-2,9.930217743E0,9.932276990E0
3.863273906E0,1.881665289E-1,6.575655192E-2,9.891890526E0,9.893898561E0
3.868310833E0,2.121215165E-1,8.492057770E-2,9.858353615E0,9.861001117E0
3.873341614E0,2.169125229E-1,8.252506703E-2,9.906263351E0,9.908981533E0
3.878378541E0,2.001440227E-1,7.054757327E-2,9.894286156E0,9.896561682E0
3.883415416E0,2.073305249E-1,6.815206259E-2,9.882308006E0,9.884717608E0
3.888452291E0,2.169125229E-1,6.815206259E-2,9.889494896E0,9.892108220E0
3.893489218E0,2.073305249E-1,6.336104125E-2,9.901472092E0,9.903845220E0
3.898526146E0,2.145170271E-1,9.689807147E-2,9.925427437E0,9.928218198E0
3.903569166E0,1.953530163E-1,8.012955636E-2,9.884703636E0,9.886958558E0
3.908606041E0,1.618160307E-1,4.419707134E-2,9.870330811E0,9.871756081E0
3.913642968E0,1.690025181E-1,4.898803309E-2,9.901472092E0,9.903035457E0
3.918679843E0,1.570250243E-1,5.377905443E-2,9.884703636E0,9.886097057E0
3.923716771E0,1.618160307E-1,8.012955636E-2,9.887099266E0,9.888748003E0
3.928753698E0,1.857710183E-1,5.857007578E-2,9.882308006E0,9.884227479E0
3.933802396E0,1.666070223E-1,7.533853501E-2,9.882308006E0,9.883999460E0
3.938839271E0,2.193080187E-1,5.857007578E-2,9.899076462E0,9.901678709E0
3.943876198E0,2.336810231E-1,5.857007578E-2,9.896680832E0,9.899612556E0
3.948913073E0,2.145170271E-1,7.533853501E-2,9.855957985E0,9.858580083E0
3.953950000E0,2.264945209E-1,5.138354376E-2,9.863143921E0,9.865877966E0
3.958986927E0,2.240990251E-1,5.617456511E-2,9.889494896E0,9.892193147E0
3.964035937E0,2.360765189E-1,6.096558645E-2,9.882308006E0,9.885315395E0
3.969072812E0,2.193080187E-1,7.773404568E-2,9.855957985E0,9.858704093E0
3.974109739E0,1.977485269E-1,8.731608838E-2,9.863143921E0,9.865512485E0
3.979146614E0,2.001440227E-1,9.929358214E-2,9.913449287E0,9.915966600E0
3.984183541E0,1.809800267E-1,8.012955636E-2,9.923031807E0,9.925005529E0
3.989220416E0,1.953530163E-1,6.575655192E-2,9.896680832E0,9.898827113E0
3.994250416E0,1.785845160E-1,1.064800546E-1,9.887099266E0,9.889285228E0
3.999287396E0,1.761890203E-1,6.815206259E-2,9.906263351E0,9.908064436E0
4.004324271E0,1.713980287E-1,7.773404568E-2,9.913449287E0,9.915235582E0
4.009361146E0,1.905620247E-1,3.221957758E-2,9.932613373E0,9.934493465E0
4.014398073E0,1.977485269E-1,7.054757327E-2,9.879912376E0,9.882142986E0
4.019435000E0,2.217035294E-1,9.929358214E-2,9.879912376E0,9.882898372E0
4.024497656E0,2.145170271E-1,5.377905443E-2,9.923031807E0,9.925495957E0
4.029534531E0,1.977485269E-1,4.898803309E-2,9.896680832E0,9.898777490E0
4.034571458E0,2.145170271E-1,7.294308394E-2,9.932613373E0,9.935197364E0
4.039608333E0,1.785845160E-1,5.617456511E-2,9.879912376E0,9.881685918E0
4.044645260E0,1.953530163E-1,4.898803309E-2,9.853562355E0,9.855620412E0
4.049682135E0,1.761890203E-1,5.138354376E-2,9.901472092E0,9.903172846E0
4.054715416E0,1.785845160E-1,5.377905443E-2,9.925427437E0,9.927179580E0
4.059752291E0,1.666070223E-1,4.180156067E-2,9.956568718E0,9.958050306E0
4.064789166E0,1.713980287E-1,5.857007578E-2,9.911054611E0,9.912709581E0
4.069826093E0,1.809800267E-1,8.492057770E-2,9.870330811E0,9.872355118E0
4.074863021E0,1.690025181E-1,8.012955636E-2,9.899076462E0,9.900843267E0
4.079899896E0,2.001440227E-1,7.773404568E-2,9.925427437E0,9.927749494E0
4.084916354E0,2.073305249E-1,2.982406877E-2,9.889494896E0,9.891712931E0
4.089953229E0,2.001440227E-1,8.252506703E-2,9.908658981E0,9.911023702E0
4.094990156E0,2.432630211E-1,7.054757327E-2,9.836793900E0,9.840054272E0
4.100027031E0,2.336810231E-1,8.012955636E-2,9.884703636E0,9.887790124E0
4.105063906E0,2.264945209E-1,7.533853501E-2,9.894286156E0,9.897164957E0
4.110100833E0,2.312855273E-1,6.336104125E-2,9.903867722E0,9.906770587E0
4.115124791E0,1.905620247E-1,6.096558645E-2,9.911054611E0,9.913073902E0
4.120161718E0,1.977485269E-1,8.012955636E-2,9.867935181E0,9.870241636E0
4.125198593E0,1.977485269E-1,4.659258202E-2,9.870330811E0,9.872421469E0
4.130235468E0,1.929575205E-1,5.857007578E-2,9.923031807E0,9.925080519E0
4.135272396E0,1.785845160E-1,4.898803309E-2,9.911054611E0,9.912784461E0
4.140309271E0,1.642115265E-1,3.221957758E-2,9.848771095E0,9.850192669E0
4.145384896E0,1.953530163E-1,4.419707134E-2,9.882308006E0,9.884337495E0
4.150421771E0,2.121215165E-1,5.617456511E-2,9.908658981E0,9.911088433E0
4.155458698E0,2.025395185E-1,4.419707134E-2,9.879912376E0,9.882087037E0
4.160495573E0,2.097260207E-1,5.138354376E-2,9.882308006E0,9.884666752E0
4.165532448E0,2.097260207E-1,9.210705012E-2,9.923031807E0,9.925675239E0
4.170569375E0,2.097260207E-1,7.294308394E-2,9.942195892E0,9.944675201E0
4.175582656E0,2.145170271E-1,6.096558645E-2,9.908658981E0,9.911168305E0
4.180619531E0,2.360765189E-1,1.040845439E-1,9.901472092E0,9.904832926E0
4.185656458E0,2.312855273E-1,6.336104125E-2,9.870330811E0,9.873243536E0
4.190693333E0,1.953530163E-1,5.857007578E-2,9.863143921E0,9.865252215E0
4.195730208E0,1.881665289E-1,9.210705012E-2,9.899076462E0,9.901293105E0
4.200767135E0,1.666070223E-1,8.731608838E-2,9.896680832E0,9.898468239E0
4.205782291E0,1.785845160E-1,1.160620376E-1,9.882308006E0,9.884602893E0
4.210819218E0,1.713980287E-1,7.294308394E-2,9.877516747E0,9.879273002E0
4.215856093E0,1.833755225E-1,7.533853501E-2,9.903867722E0,9.905851721E0
4.220892968E0,1.977485269E-1,7.773404568E-2,9.920636177E0,9.922911328E0
4.225929896E0,2.097260207E-1,5.377905443E-2,9.867935181E0,9.870310123E0
4.230966823E0,2.073305249E-1,8.492057770E-2,9.853562355E0,9.856109199E0
4.236026510E0,2.169125229E-1,6.575655192E-2,9.915844917E0,9.918435128E0
4.241063385E0,2.073305249E-1,5.377905443E-2,9.911054611E0,9.913368834E0
4.246100312E0,2.312855273E-1,8.012955636E-2,9.911054611E0,9.914076722E0
4.251137187E0,1.905620247E-1,5.138354376E-2,9.884703636E0,9.886673866E0
4.256174114E0,2.073305249E-1,4.180156067E-2,9.894286156E0,9.896546461E0
4.261210989E0,1.953530163E-1,9.450256079E-2,9.935009003E0,9.937378800E0
4.266251093E0,1.809800267E-1,6.815206259E-2,9.894286156E0,9.896175878E0
4.271287968E0,1.690025181E-1,6.096558645E-2,9.879912376E0,9.881545791E0
4.276324896E0,1.737935245E-1,3.701053932E-2,9.877516747E0,9.879114892E0
4.281361771E0,2.001440227E-1,5.617456511E-2,9.908658981E0,9.910839320E0
4.286398646E0,2.121215165E-1,5.857007578E-2,9.879912376E0,9.882362802E0
4.291435573E0,1.761890203E-1,7.294308394E-2,9.867935181E0,9.869777505E0
4.296484010E0,2.001440227E-1,5.857007578E-2,9.863143921E0,9.865348250E0
4.301520937E0,1.929575205E-1,6.096558645E-2,9.860748291E0,9.862824457E0
4.306557864E0,2.097260207E-1,6.096558645E-2,9.867935181E0,9.870351895E0
4.311594791E0,2.169125229E-1,1.064800546E-1,9.863143921E0,9.866103438E0
4.316631666E0,2.169125229E-1,9.689807147E-2,9.889494896E0,9.892348031E0
4.321668541E0,2.121215165E-1,9.450256079E-2,9.894286156E0,9.897010902E0
4.326667968E0,1.833755225E-1,7.773404568E-2,9.903867722E0,9.905870230E0
4.331704843E0,2.097260207E-1,8.731608838E-2,9.908658981E0,9.911262882E0
4.336741771E0,1.785845160E-1,6.096558645E-2,9.923031807E0,9.924825917E0
4.341778646E0,1.953530163E-1,9.689807147E-2,9.894286156E0,9.896688869E0
4.346815573E0,1.857710183E-1,1.040845439E-1,9.867935181E0,9.870232479E0
4.351852448E0,2.097260207E-1,4.419707134E-2,9.915844917E0,9.918161060E0
4.356893698E0,1.857710183E-1,5.857007578E-2,9.903867722E0,9.905783017E0
4.361930625E0,2.073305249E-1,7.054757327E-2,9.908658981E0,9.911078938E0
4.366967500E0,2.145170271E-1,8.012955636E-2,9.908658981E0,9.911304713E0
4.372004427E0,2.193080187E-1,6.815206259E-2,9.891890526E0,9.894556023E0
4.377041302E0,2.073305249E-1,5.138354376E-2,9.870330811E0,9.872641821E0
4.382078229E0,2.193080187E-1,5.138354376E-2,9.877516747E0,9.880084684E0
4.387134271E0,2.312855273E-1,8.492057770E-2,9.903867722E0,9.906931934E0
4.392171146E0,2.049350291E-1,6.575655192E-2,9.930217743E0,9.932549860E0
4.397208021E0,2.025395185E-1,8.492057770E-2,9.915844917E0,9.918276775E0
4.402244948E0,2.217035294E-1,6.096558645E-2,9.891890526E0,9.894562518E0
4.407281875E0,2.073305249E-1,8.731608838E-2,9.872726440E0,9.875289232E0
4.412318750E0,1.881665289E-1,9.929358214E-2,9.877516747E0,9.879807839E0
4.417360000E0,2.025395185E-1,6.096558645E-2,9.867935181E0,9.870201811E0
4.422396927E0,1.929575205E-1,1.088755652E-1,9.872726440E0,9.875212092E0
4.427433802E0,1.785845160E-1,8.252506703E-2,9.903867722E0,9.905821453E0
4.432470677E0,2.169125229E-1,7.533853501E-2,9.882308006E0,9.884975390E0
4.437507604E0,1.857710183E-1,9.689807147E-2,9.906263351E0,9.908478879E0
4.442544479E0,2.217035294E-1,7.294308394E-2,9.908658981E0,9.911407365E0
4.447549531E0,2.073305249E-1,5.377905443E-2,9.877516747E0,9.879838825E0
4.452586406E0,2.336810231E-1,6.575655192E-2,9.860748291E0,9.863735986E0
4.457623333E0,2.240990251E-1,6.815206259E-2,9.901472092E0,9.904242256E0
4.462660208E0,2.336810231E-1,6.096558645E-2,9.858353615E0,9.861311252E0
4.467697135E0,2.001440227E-1,5.138354376E-2,9.920636177E0,9.922787918E0
4.472734010E0,1.881665289E-1,4.898803309E-2,9.918240547E0,9.920146270E0
4.477773177E0,1.905620247E-1,6.815206259E-2,9.896680832E0,9.898749925E0
4.482810052E0,1.833755225E-1,7.294308394E-2,9.879912376E0,9.881883213E0
4.487846979E0,1.785845160E-1,8.492057770E-2,9.834398270E0,9.836386189E0
4.492883906E0,1.690025181E-1,5.138354376E-2,9.882308006E0,9.883886566E0
4.497920781E0,2.025395185E-1,4.419707134E-2,9.877516747E0,9.879691934E0
4.502957656E0,2.145170271E-1,7.773404568E-2,9.911054611E0,9.913680630E0
4.508020416E0,2.312855273E-1,7.533853501E-2,9.887099266E0,9.890091040E0
4.513057291E0,2.217035294E-1,8.731608838E-2,9.877516747E0,9.880390358E0
4.518094218E0,2.121215165E-1,6.336104125E-2,9.884703636E0,9.887182416E0
4.523131093E0,1.857710183E-1,6.575655192E-2,9.891890526E0,9.893853292E0
4.528168021E0,2.193080187E-1,7.294308394E-2,9.887099266E0,9.889800230E0
4.533204896E0,2.121215165E-1,4.180156067E-2,9.911054611E0,9.913412451E0
4.538244948E0,2.073305249E-1,8.492057770E-2,9.903867722E0,9.906401632E0
4.543281823E0,1.809800267E-1,8.492057770E-2,9.867935181E0,9.869959980E0
4.548318698E0,2.288900167E-1,7.533853501E-2,9.901472092E0,9.904403875E0
4.553355625E0,2.121215165E-1,7.533853501E-2,9.899076462E0,9.901635533E0
4.558392500E0,1.833755225E-1,6.096558645E-2,9.918240547E0,9.920122930E0
4.563429427E0,2.025395185E-1,9.210705012E-2,9.899076462E0,9.901576681E0
4.568488333E0,2.145170271E-1,8.971153945E-2,9.906263351E0,9.908991841E0
4.573525260E0,2.073305249E-1,5.138354376E-2,9.930217743E0,9.932514819E0
4.578562187E0,2.193080187E-1,5.377905443E-2,9.906263351E0,9.908836550E0
4.583599062E0,2.193080187E-1,6.336104125E-2,9.841585159E0,9.844232275E0
4.588635989E0,1.953530163E-1,4.898803309E-2,9.935009003E0,9.937050192E0
4.593672864E0,1.977485269E-1,5.617456511E-2,9.870330811E0,9.872471341E0
4.598691354E0,2.121215165E-1,7.533853501E-2,9.851166725E0,9.853738239E0
4.603728229E0,2.169125229E-1,6.336104125E-2,9.865539551E0,9.868127294E0
4.608765156E0,2.145170271E-1,6.336104125E-2,9.887099266E0,9.889629117E0
4.613802031E0,2.217035294E-1,6.336104125E-2,9.899076462E0,9.901761554E0
4.618838958E0,2.240990251E-1,6.336104125E-2,9.887099266E0,9.889841601E0
4.623875833E0,2.049350291E-1,8.252506703E-2,9.865539551E0,9.868012940E0
4.628903021E0,1.785845160E-1,1.016890332E-1,9.903867722E0,9.905999643E0
4.633939896E0,1.881665289E-1,9.210705012E-2,9.899076462E0,9.901293105E0
4.638976823E0,2.121215165E-1,6.815206259E-2,9.908658981E0,9.911163557E0
4.644013698E0,2.073305249E-1,9.450256079E-2,9.920636177E0,9.923252432E0
4.649050573E0,2.264945209E-1,5.617456511E-2,9.911054611E0,9.913801433E0
4.654087500E0,2.073305249E-1,7.294308394E-2,9.920636177E0,9.923070533E0
4.659132031E0,2.145170271E-1,7.533853501E-2,9.901472092E0,9.904082140E0
4.664168906E0,1.977485269E-1,4.659258202E-2,9.875122070E0,9.877211714E0
4.669205833E0,2.073305249E-1,8.731608838E-2,9.899076462E0,9.901632433E0
4.674242708E0,2.288900167E-1,4.180156067E-2,9.896680832E0,9.899415614E0
4.679279583E0,1.857710183E-1,7.054757327E-2,9.872726440E0,9.874726082E0
4.684316510E0,1.881665289E-1,8.971153945E-2,9.870330811E0,9.872531849E0
4.689360729E0,1.977485269E-1,6.815206259E-2,9.901472092E0,9.903681071E0
4.694397604E0,2.145170271E-1,6.336104125E-2,9.877516747E0,9.880049051E0
4.699434531E0,1.881665289E-1,4.659258202E-2,9.879912376E0,9.881813906E0
4.704471406E0,1.833755225E-1,5.617456511E-2,9.903867722E0,9.905724507E0
4.709508333E0,1.953530163E-1,7.294308394E-2,9.901472092E0,9.903667658E0
4.714545208E0,1.833755225E-1,4.180156067E-2,9.942195892E0,9.943974714E0
4.719602916E0,2.121215165E-1,8.012955636E-2,9.908658981E0,9.911253154E0
4.724639843E0,1.857710183E-1,2.503304742E-2,9.903867722E0,9.905641492E0
4.729676666E0,2.097260207E-1,3.461508825E-2,9.882308006E0,9.884593807E0
4.734713593E0,2.288900167E-1,9.450256079E-2,9.865539551E0,9.868646918E0
4.739750521E0,2.217035294E-1,6.815206259E-2,9.882308006E0,9.885029524E0
4.744787396E0,2.097260207E-1,6.336104125E-2,9.901472092E0,9.903895658E0
4.749788698E0,2.097260207E-1,6.096558645E-2,9.899076462E0,9.901485576E0
4.754825573E0,2.073305249E-1,5.138354376E-2,9.896680832E0,9.898985691E0
4.759862500E0,1.833755225E-1,7.533853501E-2,9.887099266E0,9.889086630E0
4.764899375E0,2.001440227E-1,8.492057770E-2,9.867935181E0,9.870329977E0
4.769936302E0,2.049350291E-1,7.054757327E-2,9.863143921E0,9.865524990E0
4.774973177E0,1.809800267E-1,7.773404568E-2,9.887099266E0,9.889061040E0
4.780014166E0,1.833755225E-1,6.336104125E-2,9.879912376E0,9.881817129E0
4.785051093E0,1.977485269E-1,9.689807147E-2,9.884703636E0,9.887156300E0
4.790088021E0,2.073305249E-1,3.940605000E-2,9.891890526E0,9.894141547E0
4.795124896E0,2.145170271E-1,5.377905443E-2,9.891890526E0,9.894362431E0
4.800161771E0,2.169125229E-1,9.450256079E-2,9.899076462E0,9.901903684E0
4.805198698E0,2.121215165E-1,8.731608838E-2,9.879912376E0,9.882574978E0
4.810452448E0,2.121215165E-1,6.336104125E-2,9.877516747E0,9.879997330E0
4.815489323E0,2.240990251E-1,6.575655192E-2,9.839189529E0,9.841960927E0
4.820526250E0,2.121215165E-1,4.419707134E-2,9.877516747E0,9.879893015E0
4.825563125E0,1.690025181E-1,8.252506703E-2,9.863143921E0,9.864936910E0
4.830600052E0,1.881665289E-1,7.533853501E-2,9.879912376E0,9.881991252E0
4.835636927E0,1.929575205E-1,8.971153945E-2,9.918240547E0,9.920522986E0
4.840429843E0,1.953530163E-1,6.815206259E-2,9.939800262E0,9.941953368E0
4.845466718E0,1.809800267E-1,3.940605000E-2,9.911054611E0,9.912785184E0
4.850503646E0,1.857710183E-1,4.419707134E-2,9.879912376E0,9.881757577E0
4.855540521E0,2.025395185E-1,8.492057770E-2,9.875122070E0,9.877563954E0
4.860577448E0,1.809800267E-1,8.731608838E-2,9.906263351E0,9.908301139E0
4.865614323E0,1.833755225E-1,7.294308394E-2,9.925427437E0,9.927389238E0
4.870752552E0,2.049350291E-1,9.450256079E-2,9.908658981E0,9.911228577E0
4.875789427E0,2.145170271E-1,9.929358214E-2,9.867935181E0,9.870766004E0
4.880826354E0,2.145170271E-1,1.040845439E-1,9.858353615E0,9.861236593E0
4.885863229E0,2.001440227E-1,9.929358214E-2,9.894286156E0,9.896808343E0
4.890900156E0,2.288900167E-1,7.294308394E-2,9.920636177E0,9.923544402E0
4.895937083E0,2.217035294E-1,7.054757327E-2,9.918240547E0,9.920968953E0
4.900902291E0,2.097260207E-1,5.617456511E-2,9.903867722E0,9.906247344E0
4.905939166E0,2.073305249E-1,6.336104125E-2,9.889494896E0,9.891870898E0
4.910976093E0,1.833755225E-1,5.857007578E-2,9.889494896E0,9.891368274E0
4.916012968E0,1.881665289E-1,8.492057770E-2,9.899076462E0,9.901228860E0
4.921049843E0,2.121215165E-1,8.012955636E-2,9.884703636E0,9.887304095E0
4.926086771E0,2.121215165E-1,5.138354376E-2,9.875122070E0,9.877533686E0
4.931128489E0,1.977485269E-1,7.054757327E-2,9.889494896E0,9.891723345E0
4.936165364E0,1.953530163E-1,4.659258202E-2,9.867935181E0,9.869978642E0
4.941202291E0,2.049350291E-1,9.929358214E-2,9.863143921E0,9.865772427E0
4.946239166E0,2.073305249E-1,8.731608838E-2,9.872726440E0,9.875289232E0
4.951276041E0,2.169125229E-1,6.336104125E-2,9.872726440E0,9.875312300E0
4.956312968E0,2.073305249E-1,3.701053932E-2,9.882308006E0,9.884551950E0
4.961313750E0,1.977485269E-1,6.815206259E-2,9.882308006E0,9.884521269E0
4.966350677E0,1.857710183E-1,9.929358214E-2,9.887099266E0,9.889342849E0
4.971387552E0,2.097260207E-1,7.533853501E-2,9.896680832E0,9.899189481E0
4.976424427E0,1.929575205E-1,4.419707134E-2,9.891890526E0,9.893871040E0
4.981461354E0,1.809800267E-1,8.731608838E-2,9.875122070E0,9.877166283E0
4.986498229E0,1.546295285E-1,8.731608838E-2,9.865539551E0,9.867137630E0
4.991575781E0,1.761890203E-1,4.898803309E-2,9.865539551E0,9.867234315E0
4.996612656E0,2.169125229E-1,7.294308394E-2,9.901472092E0,9.904116383E0
5.001649531E0,2.097260207E-1,5.617456511E-2,9.911054611E0,9.913432508E0
5.006686458E0,2.097260207E-1,6.815206259E-2,9.923031807E0,9.925481850E0
5.011723385E0,2.193080187E-1,6.336104125E-2,9.870330811E0,9.872970219E0
5.016760260E0,2.025395185E-1,5.377905443E-2,9.877516747E0,9.879739446E0
5.021766718E0,2.145170271E-1,8.012955636E-2,9.867935181E0,9.870591828E0
5.026803593E0,2.288900167E-1,8.492057770E-2,9.903867722E0,9.906876298E0
5.031840521E0,2.001440227E-1,9.929358214E-2,9.882308006E0,9.884833250E0
5.036877448E0,2.121215165E-1,6.575655192E-2,9.867935181E0,9.870433840E0
5.041914323E0,2.193080187E-1,7.533853501E-2,9.911054611E0,9.913766964E0
5.046951198E0,1.977485269E-1,7.773404568E-2,9.925427437E0,9.927701490E0
5.051979687E0,2.049350291E-1,9.450256079E-2,9.884703636E0,9.887279458E0
5.057016562E0,1.953530163E-1,8.731608838E-2,9.855957985E0,9.858280514E0
5.062053489E0,2.097260207E-1,9.929358214E-2,9.908658981E0,9.911375637E0
5.067090364E0,2.121215165E-1,7.294308394E-2,9.875122070E0,9.877669368E0
5.072127343E0,1.905620247E-1,3.940605000E-2,9.870330811E0,9.872248834E0
5.077164218E0,1.737935245E-1,8.492057770E-2,9.906263351E0,9.908151658E0
5.082200573E0,2.145170271E-1,6.096558645E-2,9.853562355E0,9.856085706E0
5.087237500E0,1.881665289E-1,7.533853501E-2,9.860748291E0,9.862831206E0
5.092274375E0,1.953530163E-1,3.940605000E-2,9.901472092E0,9.903477431E0
5.097311302E0,2.384720147E-1,8.492057770E-2,9.887099266E0,9.890339342E0
5.102348177E0,2.025395185E-1,8.012955636E-2,9.865539551E0,9.867943739E0
5.107385104E0,1.929575205E-1,9.450256079E-2,9.891890526E0,9.894223644E0
5.112538593E0,2.121215165E-1,8.012955636E-2,9.901472092E0,9.904068147E0
5.117575625E0,2.217035294E-1,7.294308394E-2,9.894286156E0,9.897038531E0
5.122612604E0,2.097260207E-1,8.252506703E-2,9.843979836E0,9.846559521E0
5.127649583E0,1.857710183E-1,5.857007578E-2,9.894286156E0,9.896203305E0
5.132686614E0,1.618160307E-1,4.180156067E-2,9.923031807E0,9.924439130E0
5.137723593E0,1.833755225E-1,9.210705012E-2,9.899076462E0,9.901203214E0
5.142660937E0,1.905620247E-1,8.012955636E-2,9.877516747E0,9.879679737E0
5.147697916E0,1.905620247E-1,8.012955636E-2,9.903867722E0,9.906024958E0
5.152734896E0,1.905620247E-1,4.180156067E-2,9.901472092E0,9.903393905E0
5.157771875E0,2.145170271E-1,5.857007578E-2,9.889494896E0,9.891994607E0
5.162808906E0,2.097260207E-1,5.377905443E-2,9.858353615E0,9.860730865E0
5.167845885E0,1.929575205E-1,7.533853501E-2,9.884703636E0,9.886873847E0
5.172891823E0,2.121215165E-1,7.533853501E-2,9.901472092E0,9.904030544E0
5.177928802E0,2.097260207E-1,6.096558645E-2,9.843979836E0,9.846402430E0
5.182965833E0,2.145170271E-1,8.012955636E-2,9.918240547E0,9.920883723E0
5.188002812E0,2.049350291E-1,8.252506703E-2,9.903867722E0,9.906331541E0
5.193039791E0,1.809800267E-1,7.294308394E-2,9.865539551E0,9.867469032E0
5.198076771E0,2.025395185E-1,7.773404568E-2,9.889494896E0,9.891874147E0
5.203137031E0,1.785845160E-1,8.252506703E-2,9.877516747E0,9.879475689E0
5.208174010E0,1.905620247E-1,6.096558645E-2,9.855957985E0,9.857988562E0
5.213211041E0,2.097260207E-1,7.294308394E-2,9.877516747E0,9.880012286E0
5.218247968E0,1.857710183E-1,8.252506703E-2,9.889494896E0,9.891583824E0
5.223285000E0,1.977485269E-1,9.450256079E-2,9.903867722E0,9.906292498E0
5.228321979E0,2.025395185E-1,7.054757327E-2,9.865539551E0,9.867870583E0
5.233335416E0,2.001440227E-1,8.252506703E-2,9.870330811E0,9.872704712E0
5.238372396E0,2.097260207E-1,1.040845439E-1,9.906263351E0,9.909029831E0
5.243409375E0,2.049350291E-1,9.210705012E-2,9.901472092E0,9.904020984E0
5.248446354E0,1.881665289E-1,4.898803309E-2,9.901472092E0,9.903381041E0
5.253483385E0,2.001440227E-1,4.659258202E-2,9.865539551E0,9.867679521E0
5.258520364E0,1.737935245E-1,5.377905443E-2,9.894286156E0,9.895958514E0
5.263536302E0,2.025395185E-1,5.857007578E-2,9.894286156E0,9.896532284E0
5.268573281E0,1.785845160E-1,4.898803309E-2,9.906263351E0,9.907994037E0
5.273610260E0,2.073305249E-1,6.815206259E-2,9.899076462E0,9.901481982E0
5.278647239E0,2.049350291E-1,5.617456511E-2,9.901472092E0,9.903751993E0
5.283684271E0,1.833755225E-1,6.336104125E-2,9.877516747E0,9.879421961E0
5.288721198E0,1.977485269E-1,1.016890332E-1,9.911054611E0,9.913548741E0
5.293758333E0,2.049350291E-1,8.252506703E-2,9.879912376E0,9.882382168E0
5.298795260E0,2.049350291E-1,7.294308394E-2,9.875122070E0,9.877517652E0
5.303832291E0,1.881665289E-1,6.815206259E-2,9.896680832E0,9.898704099E0
5.308869271E0,1.929575205E-1,4.659258202E-2,9.887099266E0,9.889091736E0
5.313906302E0,2.097260207E-1,6.815206259E-2,9.882308006E0,9.884768143E0
5.318943281E0,1.953530163E-1,1.088755652E-1,9.879912376E0,9.882443284E0
5.324002396E0,1.833755225E-1,7.294308394E-2,9.875122070E0,9.877093863E0
5.329039375E0,1.929575205E-1,5.857007578E-2,9.915844917E0,9.917895113E0
5.334076406E0,1.977485269E-1,6.815206259E-2,9.867935181E0,9.870151666E0
5.339113385E0,1.977485269E-1,8.252506703E-2,9.846375465E0,9.848706751E0
5.344150364E0,2.025395185E-1,8.252506703E-2,9.896680832E0,9.899097137E0
5.349187343E0,1.833755225E-1,7.533853501E-2,9.915844917E0,9.917826521E0
5.354222343E0,2.097260207E-1,4.659258202E-2,9.891890526E0,9.894223266E0
5.359259323E0,2.049350291E-1,7.773404568E-2,9.875122070E0,9.877554194E0
5.364296302E0,2.240990251E-1,8.492057770E-2,9.879912376E0,9.882818446E0
5.369333333E0,2.193080187E-1,8.492057770E-2,9.882308006E0,9.885105920E0
5.374370312E0,2.240990251E-1,5.377905443E-2,9.870330811E0,9.873020960E0
5.379407291E0,2.288900167E-1,5.857007578E-2,9.884703636E0,9.887526843E0
5.384459479E0,1.881665289E-1,5.377905443E-2,9.887099266E0,9.889035885E0
5.389496510E0,1.857710183E-1,4.180156067E-2,9.887099266E0,9.888932710E0
5.394533489E0,2.145170271E-1,6.336104125E-2,9.918240547E0,9.920762457E0
5.399570521E0,1.929575205E-1,9.450256079E-2,9.951777458E0,9.954096539E0
5.404607448E0,1.953530163E-1,5.857007578E-2,9.927823067E0,9.929917628E0
5.409644479E0,2.025395185E-1,7.533853501E-2,9.908658981E0,9.911015133E0
5.414670052E0,2.145170271E-1,7.533853501E-2,9.906263351E0,9.908872138E0
5.419707031E0,2.193080187E-1,4.180156067E-2,9.896680832E0,9.899198698E0
5.424744010E0,2.097260207E-1,4.180156067E-2,9.944591522E0,9.946890616E0
5.429781041E0,2.049350291E-1,8.971153945E-2,9.882308006E0,9.884839809E0
5.434818021E0,2.073305249E-1,6.096558645E-2,9.853562355E0,9.855931911E0
5.439855052E0,2.049350291E-1,1.040845439E-1,9.884703636E0,9.887375685E0
5.444882031E0,2.193080187E-1,1.016890332E-1,9.901472092E0,9.904422560E0
5.449919010E0,1.977485269E-1,6.815206259E-2,9.875122070E0,9.877336943E0
5.454955989E0,2.264945209E-1,9.210705012E-2,9.889494896E0,9.892517009E0
5.459992968E0,2.001440227E-1,8.252506703E-2,9.894286156E0,9.896654311E0
5.465030000E0,1.785845160E-1,8.492057770E-2,9.899076462E0,9.901051395E0
5.470066979E0,1.905620247E-1,9.450256079E-2,9.925427437E0,9.927706403E0
5.475153958E0,1.785845160E-1,8.492057770E-2,9.887099266E0,9.889076591E0
5.480190989E0,2.145170271E-1,6.815206259E-2,9.899076462E0,9.901635070E0
5.485227968E0,2.025395185E-1,6.575655192E-2,9.877516747E0,9.879811904E0
5.490265000E0,1.833755225E-1,8.971153945E-2,9.913449287E0,9.915550994E0
5.495301979E0,2.097260207E-1,5.138354376E-2,9.884703636E0,9.887061811E0
5.500338958E0,2.121215165E-1,3.461508825E-2,9.875122070E0,9.877460688E0
5.505301458E0,2.121215165E-1,5.138354376E-2,9.896680832E0,9.899087195E0
5.510338437E0,2.240990251E-1,4.898803309E-2,9.855957985E0,9.858627085E0
5.515375468E0,2.049350291E-1,8.012955636E-2,9.889494896E0,9.891942600E0
5.520412448E0,1.977485269E-1,6.096558645E-2,9.923031807E0,9.925189244E0
5.525449427E0,2.145170271E-1,3.461508825E-2,9.884703636E0,9.887091672E0
5.530486406E0,2.121215165E-1,8.252506703E-2,9.887099266E0,9.889718794E0
5.535569583E0,1.737935245E-1,9.450256079E-2,9.894286156E0,9.896263611E0
5.540606562E0,1.977485269E-1,7.773404568E-2,9.894286156E0,9.896567364E0
5.545643593E0,1.833755225E-1,8.731608838E-2,9.925427437E0,9.927505250E0
5.550680573E0,1.785845160E-1,8.971153945E-2,9.915844917E0,9.917858691E0
5.555717552E0,2.049350291E-1,6.815206259E-2,9.858353615E0,9.860718993E0
5.560754531E0,2.145170271E-1,9.929358214E-2,9.887099266E0,9.889924604E0
5.565752031E0,2.001440227E-1,8.252506703E-2,9.908658981E0,9.911023702E0
5.570788958E0,1.737935245E-1,4.419707134E-2,9.884703636E0,9.886330135E0
5.575825989E0,2.121215165E-1,8.012955636E-2,9.877516747E0,9.880119097E0
5.580862968E0,2.145170271E-1,8.731608838E-2,9.901472092E0,9.904180493E0
5.585900000E0,1.977485269E-1,8.731608838E-2,9.903867722E0,9.906226548E0
5.590936979E0,2.169125229E-1,7.773404568E-2,9.927823067E0,9.930496688E0
5.596000521E0,2.073305249E-1,7.533853501E-2,9.863143921E0,9.865610465E0
5.601037500E0,1.929575205E-1,8.492057770E-2,9.863143921E0,9.865396703E0
5.606074531E0,2.049350291E-1,1.784657501E-2,9.906263351E0,9.908398985E0
5.611111458E0,2.073305249E-1,6.336104125E-2,9.925427437E0,9.927794839E0
5.616148489E0,1.737935245E-1,4.898803309E-2,9.896680832E0,9.898327915E0
5.621185468E0,1.809800267E-1,3.701053932E-2,9.896680832E0,9.898404671E0
5.626220833E0,2.001440227E-1,5.377905443E-2,9.891890526E0,9.894061249E0
5.631257812E0,1.833755225E-1,5.377905443E-2,9.920636177E0,9.922476552E0
5.636294791E0,2.097260207E-1,8.252506703E-2,9.894286156E0,9.896852728E0
5.641331771E0,2.049350291E-1,8.012955636E-2,9.877516747E0,9.879967418E0
5.646368802E0,1.929575205E-1,6.336104125E-2,9.867935181E0,9.870024922E0
5.651405833E0,2.097260207E-1,5.377905443E-2,9.896680832E0,9.899048877E0
5.656444687E0,1.977485269E-1,1.040845439E-1,9.889494896E0,9.892019378E0
5.661481666E0,1.929575205E-1,5.617456511E-2,9.903867722E0,9.905906523E0
5.666518698E0,2.001440227E-1,7.054757327E-2,9.884703636E0,9.886981368E0
5.671555625E0,1.737935245E-1,7.773404568E-2,9.889494896E0,9.891327316E0
5.676592656E0,1.833755225E-1,7.533853501E-2,9.923031807E0,9.925011976E0
5.681629635E0,2.025395185E-1,8.731608838E-2,9.899076462E0,9.901533273E0
5.686637552E0,2.193080187E-1,8.492057770E-2,9.877516747E0,9.880316017E0
5.691674479E0,2.073305249E-1,7.773404568E-2,9.870330811E0,9.872814130E0
5.696711510E0,1.833755225E-1,5.377905443E-2,9.882308006E0,9.884155518E0
5.701748489E0,2.169125229E-1,7.294308394E-2,9.903867722E0,9.906511373E0
5.706785521E0,1.953530163E-1,6.096558645E-2,9.875122070E0,9.877242303E0
5.711822500E0,2.001440227E-1,7.294308394E-2,9.875122070E0,9.877419411E0
5.716877552E0,1.737935245E-1,5.617456511E-2,9.865539551E0,9.867230128E0
5.721914531E0,1.618160307E-1,6.336104125E-2,9.829607010E0,9.831143017E0
5.726951562E0,2.073305249E-1,6.336104125E-2,9.839189529E0,9.841577677E0
5.731988489E0,2.193080187E-1,5.617456511E-2,9.875122070E0,9.877716715E0
5.737025521E0,1.977485269E-1,5.377905443E-2,9.870330811E0,9.872458001E0
5.742062500E0,2.025395185E-1,5.617456511E-2,9.882308006E0,9.884542952E0
5.747104896E0,1.833755225E-1,8.971153945E-2,9.867935181E0,9.870046579E0
5.752141875E0,1.953530163E-1,1.040845439E-1,9.863143921E0,9.865627420E0
5.757178906E0,2.049350291E-1,5.857007578E-2,9.908658981E0,9.910951096E0
5.762215833E0,1.953530163E-1,5.377905443E-2,9.903867722E0,9.905940179E0
5.767252864E0,1.833755225E-1,8.731608838E-2,9.879912376E0,9.881999760E0
5.772289843E0,2.049350291E-1,1.112710759E-1,9.855957985E0,9.858716317E0
5.777296979E0,1.905620247E-1,7.773404568E-2,9.913449287E0,9.915585371E0
5.782334010E0,1.953530163E-1,6.575655192E-2,9.913449287E0,9.915591939E0
5.787370989E0,1.618160307E-1,6.815206259E-2,9.884703636E0,9.886262949E0
5.792407968E0,2.073305249E-1,8.731608838E-2,9.858353615E0,9.860920142E0
5.797445000E0,2.169125229E-1,6.096558645E-2,9.882308006E0,9.884876295E0
5.802481927E0,2.288900167E-1,5.617456511E-2,9.925427437E0,9.928225220E0
5.807569375E0,2.025395185E-1,6.096558645E-2,9.894286156E0,9.896546751E0
5.812606354E0,1.857710183E-1,5.617456511E-2,9.894286156E0,9.896189417E0
5.817643385E0,1.953530163E-1,6.575655192E-2,9.942195892E0,9.944332350E0
5.822680312E0,1.977485269E-1,5.857007578E-2,9.887099266E0,9.889250064E0
5.827717343E0,1.857710183E-1,7.054757327E-2,9.882308006E0,9.884305710E0
5.832754323E0,1.881665289E-1,3.940605000E-2,9.918240547E0,9.920103580E0
5.837743750E0,1.905620247E-1,5.857007578E-2,9.915844917E0,9.917848797E0
5.842780677E0,2.145170271E-1,5.377905443E-2,9.920636177E0,9.923100922E0
5.847817708E0,2.240990251E-1,5.857007578E-2,9.911054611E0,9.913760857E0
5.852854687E0,2.145170271E-1,1.040845439E-1,9.879912376E0,9.882789065E0
5.857891718E0,1.953530163E-1,1.040845439E-1,9.863143921E0,9.865627420E0
5.862928646E0,2.049350291E-1,3.701053932E-2,9.906263351E0,9.908452035E0
5.867995052E0,2.288900167E-1,6.815206259E-2,9.891890526E0,9.894773040E0
5.873032031E0,2.025395185E-1,5.138354376E-2,9.891890526E0,9.894097266E0
5.878069062E0,2.049350291E-1,8.252506703E-2,9.913449287E0,9.915910726E0
5.883105989E0,2.097260207E-1,9.929358214E-2,9.908658981E0,9.911375637E0
5.888143021E0,1.809800267E-1,6.336104125E-2,9.870330811E0,9.872193206E0
5.893180000E0,1.785845160E-1,7.054757327E-2,9.913449287E0,9.915308677E0
5.898215364E0,1.857710183E-1,8.012955636E-2,9.882308006E0,9.884378744E0
5.903252343E0,2.073305249E-1,7.533853501E-2,9.913449287E0,9.915903318E0
5.908289323E0,2.217035294E-1,6.815206259E-2,9.872726440E0,9.875450599E0
5.913326354E0,1.905620247E-1,5.138354376E-2,9.870330811E0,9.872303909E0
5.918363333E0,2.169125229E-1,3.461508825E-2,9.872726440E0,9.875169701E0
5.923400364E0,1.809800267E-1,5.377905443E-2,9.867935181E0,9.869741166E0
5.928405312E0,1.857710183E-1,6.096558645E-2,9.889494896E0,9.891427449E0
5.933442291E0,1.953530163E-1,4.180156067E-2,9.932613373E0,9.934622217E0
5.938479323E0,2.025395185E-1,8.971153945E-2,9.889494896E0,9.891975521E0
5.943516302E0,2.264945209E-1,7.294308394E-2,9.920636177E0,9.923489438E0
5.948553333E0,2.384720147E-1,4.180156067E-2,9.891890526E0,9.894852927E0
5.953590260E0,1.953530163E-1,4.419707134E-2,9.887099266E0,9.889127771E0
5.958631718E0,2.073305249E-1,8.971153945E-2,9.863143921E0,9.865730693E0
5.963668646E0,1.809800267E-1,4.659258202E-2,9.899076462E0,9.900840340E0
5.968705677E0,2.049350291E-1,5.617456511E-2,9.891890526E0,9.894172635E0
5.973742656E0,1.785845160E-1,7.533853501E-2,9.863143921E0,9.865048217E0
5.978779687E0,1.809800267E-1,4.180156067E-2,9.894286156E0,9.896029490E0
5.983816614E0,2.169125229E-1,8.012955636E-2,9.891890526E0,9.894592966E0
5.988888385E0,1.905620247E-1,6.575655192E-2,9.920636177E0,9.922684111E0
5.993925364E0,1.953530163E-1,9.450256079E-2,9.901472092E0,9.903849914E0
5.998962396E0,2.097260207E-1,1.184575483E-1,9.937404633E0,9.940323336E0
6.003999375E0,1.905620247E-1,8.252506703E-2,9.884703636E0,9.886884759E0
6.009036354E0,2.001440227E-1,8.731608838E-2,9.887099266E0,9.889510282E0
6.014073333E0,2.025395185E-1,8.252506703E-2,9.884703636E0,9.887122869E0
6.019095573E0,2.217035294E-1,7.533853501E-2,9.863143921E0,9.865922985E0
6.024132552E0,1.953530163E-1,6.815206259E-2,9.896680832E0,9.898843316E0
6.029169583E0,2.264945209E-1,6.096558645E-2,9.891890526E0,9.894671028E0
6.034206510E0,2.240990251E-1,6.096558645E-2,9.879912376E0,9.882641638E0
6.039243541E0,1.977485269E-1,1.184575483E-1,9.903867722E0,9.906549981E0
6.044280521E0,1.953530163E-1,9.210705012E-2,9.915844917E0,9.918196758E0
6.049328698E0,1.833755225E-1,7.294308394E-2,9.906263351E0,9.908228947E0
6.054365677E0,2.073305249E-1,8.971153945E-2,9.870330811E0,9.872915700E0
6.059402656E0,2.169125229E-1,8.971153945E-2,9.894286156E0,9.897070159E0
6.064439687E0,2.217035294E-1,7.533853501E-2,9.901472092E0,9.904240402E0
6.069476666E0,2.049350291E-1,5.138354376E-2,9.896680832E0,9.898935808E0
6.074513646E0,2.145170271E-1,4.659258202E-2,9.846375465E0,9.848822175E0
6.079554896E0,1.761890203E-1,5.857007578E-2,9.906263351E0,9.908003160E0
6.084591927E0,2.456585169E-1,7.773404568E-2,9.879912376E0,9.883271688E0
6.089628906E0,2.073305249E-1,8.971153945E-2,9.894286156E0,9.896864788E0
6.094665885E0,2.097260207E-1,7.773404568E-2,9.887099266E0,9.889628885E0
6.099702916E0,2.145170271E-1,5.857007578E-2,9.894286156E0,9.896784657E0
6.104739896E0,1.953530163E-1,8.012955636E-2,9.894286156E0,9.896538894E0
6.109739010E0,2.264945209E-1,7.773404568E-2,9.891890526E0,9.894788554E0
6.114775989E0,2.193080187E-1,7.773404568E-2,9.858353615E0,9.861099056E0
6.119813021E0,2.145170271E-1,9.929358214E-2,9.877516747E0,9.880344824E0
6.124850000E0,2.001440227E-1,8.492057770E-2,9.908658981E0,9.911043938E0
6.129886979E0,1.977485269E-1,8.252506703E-2,9.879912376E0,9.882235751E0
6.134923958E0,1.977485269E-1,8.731608838E-2,9.891890526E0,9.894252208E0
6.139982396E0,2.025395185E-1,6.336104125E-2,9.875122070E0,9.877402127E0
6.145019323E0,2.121215165E-1,4.180156067E-2,9.860748291E0,9.863118156E0
6.150056198E0,1.905620247E-1,1.305555273E-2,9.863143921E0,9.864993276E0
6.155093125E0,1.953530163E-1,5.617456511E-2,9.887099266E0,9.889188555E0
6.160130000E0,2.264945209E-1,3.461508825E-2,9.884703636E0,9.887358795E0
6.165166875E0,1.881665289E-1,7.533853501E-2,9.882308006E0,9.884386378E0
6.170197031E0,2.049350291E-1,7.533853501E-2,9.896680832E0,9.899089137E0
6.175233906E0,2.097260207E-1,5.857007578E-2,9.884703636E0,9.887101771E0
6.180270833E0,1.881665289E-1,6.815206259E-2,9.887099266E0,9.889124493E0
6.185307708E0,2.049350291E-1,4.898803309E-2,9.882308006E0,9.884554098E0
6.190344635E0,2.001440227E-1,8.492057770E-2,9.863143921E0,9.865539881E0
6.195381510E0,1.522340178E-1,8.731608838E-2,9.894286156E0,9.895842452E0
6.200419375E0,2.193080187E-1,2.982406877E-2,9.877516747E0,9.879996081E0
6.205456250E0,2.240990251E-1,8.971153945E-2,9.911054611E0,9.913993748E0
6.210493177E0,1.809800267E-1,9.689807147E-2,9.884703636E0,9.886835135E0
6.215530052E0,1.857710183E-1,5.377905443E-2,9.882308006E0,9.884200250E0
6.220566927E0,2.001440227E-1,5.857007578E-2,9.882308006E0,9.884508061E0
6.225603854E0,2.073305249E-1,7.294308394E-2,9.911054611E0,9.913491320E0
6.230642656E0,1.857710183E-1,6.336104125E-2,9.860748291E0,9.862701575E0
6.235679531E0,2.097260207E-1,8.252506703E-2,9.843979836E0,9.846559521E0
6.240716458E0,1.953530163E-1,9.689807147E-2,9.903867722E0,9.906268111E0
6.245753333E0,2.025395185E-1,7.054757327E-2,9.901472092E0,9.903794667E0
6.250790260E0,1.857710183E-1,7.054757327E-2,9.908658981E0,9.910651373E0
6.255827135E0,1.713980287E-1,1.064800546E-1,9.891890526E0,9.893948325E0
6.260837552E0,1.905620247E-1,7.533853501E-2,9.884703636E0,9.886827386E0
6.265874427E0,1.761890203E-1,6.815206259E-2,9.896680832E0,9.898483660E0
6.270911354E0,1.809800267E-1,8.731608838E-2,9.882308006E0,9.884350732E0
6.275948229E0,1.977485269E-1,9.450256079E-2,9.894286156E0,9.896713280E0
6.280985156E0,1.761890203E-1,7.533853501E-2,9.887099266E0,9.888955979E0
6.286022031E0,2.025395185E-1,6.575655192E-2,9.894286156E0,9.896577424E0
6.291103125E0,2.073305249E-1,4.898803309E-2,9.920636177E0,9.922923356E0
6.296140000E0,2.073305249E-1,4.898803309E-2,9.894286156E0,9.896579424E0
6.301176927E0,1.977485269E-1,7.773404568E-2,9.887099266E0,9.889382132E0
6.306213750E0,2.001440227E-1,5.857007578E-2,9.891890526E0,9.894088450E0
6.311250677E0,1.881665289E-1,6.096558645E-2,9.935009003E0,9.936977776E0
6.316287552E0,1.642115265E-1,4.419707134E-2,9.901472092E0,9.902932313E0
6.321317031E0,1.857710183E-1,9.450256079E-2,9.906263351E0,9.908455742E0
6.326353958E0,2.049350291E-1,5.857007578E-2,9.913449287E0,9.915740295E0
6.331390833E0,2.121215165E-1,7.773404568E-2,9.889494896E0,9.892074980E0
6.336427760E0,1.953530163E-1,5.857007578E-2,9.882308006E0,9.884412212E0
6.341464635E0,1.809800267E-1,6.815206259E-2,9.906263351E0,9.908150789E0
6.346501510E0,2.001440227E-1,5.857007578E-2,9.896680832E0,9.898877693E0
6.351559791E0,2.001440227E-1,6.096558645E-2,9.860748291E0,9.862967672E0
6.356596718E0,2.097260207E-1,1.064800546E-1,9.846375465E0,9.849184373E0
6.361633646E0,2.025395185E-1,1.088755652E-1,9.911054611E0,9.913721786E0
6.366670468E0,1.977485269E-1,7.294308394E-2,9.875122070E0,9.877371162E0
6.371707396E0,2.025395185E-1,9.210705012E-2,9.896680832E0,9.899181656E0
6.376744271E0,2.145170271E-1,6.575655192E-2,9.918240547E0,9.920778046E0
6.381756979E0,2.073305249E-1,5.617456511E-2,9.884703636E0,9.887037347E0
6.386793854E0,2.240990251E-1,7.533853501E-2,9.887099266E0,9.889925589E0
6.391830781E0,2.312855273E-1,7.294308394E-2,9.889494896E0,9.892467993E0
6.396867656E0,2.121215165E-1,4.419707134E-2,9.939800262E0,9.942161645E0
6.401904583E0,2.121215165E-1,7.773404568E-2,9.889494896E0,9.892074980E0
6.406941458E0,2.025395185E-1,8.492057770E-2,9.887099266E0,9.889538192E0
6.411991614E0,1.857710183E-1,8.731608838E-2,9.877516747E0,9.879649389E0
6.417028489E0,2.073305249E-1,9.929358214E-2,9.867935181E0,9.870612438E0
6.422065364E0,1.809800267E-1,1.064800546E-1,9.879912376E0,9.882143509E0
6.427102239E0,2.001440227E-1,8.731608838E-2,9.894286156E0,9.896695421E0
6.432139166E0,1.929575205E-1,7.294308394E-2,9.935009003E0,9.937150355E0
6.437176041E0,2.121215165E-1,9.450256079E-2,9.946987152E0,9.949697467E0
6.442206093E0,2.025395185E-1,9.450256079E-2,9.896680832E0,9.899204235E0
6.447242968E0,1.809800267E-1,7.294308394E-2,9.908658981E0,9.910580067E0
6.452279896E0,1.953530163E-1,1.040845439E-1,9.918240547E0,9.920710254E0
6.457316771E0,1.881665289E-1,1.088755652E-1,9.894286156E0,9.896674141E0
6.462353646E0,1.929575205E-1,7.054757327E-2,9.903867722E0,9.905998456E0
6.467390573E0,1.977485269E-1,1.016890332E-1,9.894286156E0,9.896784512E0
6.472422604E0,1.977485269E-1,7.773404568E-2,9.894286156E0,9.896567364E0
6.477459531E0,2.121215165E-1,8.731608838E-2,9.923031807E0,9.925682842E0
6.482496458E0,2.217035294E-1,5.617456511E-2,9.915844917E0,9.918482165E0
6.487533281E0,1.977485269E-1,6.336104125E-2,9.911054611E0,9.913229676E0
6.492570208E0,1.929575205E-1,7.294308394E-2,9.901472092E0,9.903620696E0
6.497607135E0,1.905620247E-1,5.377905443E-2,9.920636177E0,9.922611966E0
6.502627968E0,1.929575205E-1,4.419707134E-2,9.887099266E0,9.889080740E0
6.507664843E0,2.073305249E-1,7.533853501E-2,9.858353615E0,9.860821357E0
6.512701771E0,2.121215165E-1,5.377905443E-2,9.894286156E0,9.896705828E0
6.517738646E0,1.953530163E-1,5.617456511E-2,9.903867722E0,9.905953474E0
6.522775521E0,1.857710183E-1,8.012955636E-2,9.908658981E0,9.910724213E0
6.527812448E0,1.713980287E-1,7.054757327E-2,9.870330811E0,9.872070935E0
6.532866146E0,1.809800267E-1,8.012955636E-2,9.896680832E0,9.898659809E0
6.537903021E0,1.881665289E-1,8.012955636E-2,9.891890526E0,9.894004526E0
6.542939948E0,1.881665289E-1,6.575655192E-2,9.877516747E0,9.879527704E0
6.547976823E0,2.001440227E-1,6.815206259E-2,9.894286156E0,9.896544895E0
6.553013698E0,1.977485269E-1,9.929358214E-2,9.889494896E0,9.891970127E0
6.558050625E0,1.809800267E-1,8.492057770E-2,9.908658981E0,9.910675460E0
6.563055416E0,1.881665289E-1,5.377905443E-2,9.877516747E0,9.879455243E0
6.568092291E0,2.097260207E-1,7.294308394E-2,9.891890526E0,9.894382440E0
6.573129218E0,2.217035294E-1,5.377905443E-2,9.903867722E0,9.906494864E0
6.578166093E0,2.073305249E-1,7.294308394E-2,9.867935181E0,9.870382534E0
6.583202968E0,2.121215165E-1,1.040845439E-1,9.899076462E0,9.901895976E0
6.588239896E0,2.073305249E-1,6.336104125E-2,9.920636177E0,9.923004723E0
6.593310000E0,2.288900167E-1,6.336104125E-2,9.896680832E0,9.899530128E0
6.598346875E0,2.121215165E-1,3.701053932E-2,9.899076462E0,9.901418086E0
6.603383802E0,2.097260207E-1,7.294308394E-2,9.896680832E0,9.899171540E0
6.608420625E0,2.240990251E-1,6.096558645E-2,9.906263351E0,9.908985355E0
6.613457552E0,1.905620247E-1,5.377905443E-2,9.903867722E0,9.905846855E0
6.618494427E0,1.977485269E-1,6.336104125E-2,9.848771095E0,9.850959912E0
6.623522448E0,1.881665289E-1,7.533853501E-2,9.911054611E0,9.913126956E0
6.628559323E0,1.857710183E-1,5.138354376E-2,9.915844917E0,9.917718062E0
6.633596250E0,2.169125229E-1,7.054757327E-2,9.896680832E0,9.899309041E0
6.638633125E0,1.953530163E-1,7.773404568E-2,9.870330811E0,9.872569863E0
6.643670000E0,1.785845160E-1,3.940605000E-2,9.882308006E0,9.884000040E0
6.648706927E0,1.905620247E-1,6.575655192E-2,9.899076462E0,9.901128855E0
6.653727448E0,2.288900167E-1,6.815206259E-2,9.870330811E0,9.873219619E0
6.658764323E0,2.025395185E-1,7.533853501E-2,9.913449287E0,9.915804300E0
6.663801250E0,1.857710183E-1,5.857007578E-2,9.887099266E0,9.889017809E0
6.668838125E0,2.049350291E-1,8.492057770E-2,9.865539551E0,9.868033264E0
6.673875052E0,2.049350291E-1,8.012955636E-2,9.889494896E0,9.891942600E0
6.678911927E0,2.001440227E-1,8.731608838E-2,9.884703636E0,9.887115237E0
6.683967448E0,1.857710183E-1,7.533853501E-2,9.889494896E0,9.891526478E0
6.689004323E0,1.642115265E-1,8.012955636E-2,9.891890526E0,9.893577934E0
6.694041250E0,1.953530163E-1,6.815206259E-2,9.915844917E0,9.918003223E0
6.699078125E0,2.049350291E-1,5.138354376E-2,9.896680832E0,9.898935808E0
6.704115000E0,1.929575205E-1,8.252506703E-2,9.872726440E0,9.874956727E0
6.709151875E0,2.097260207E-1,8.252506703E-2,9.913449287E0,9.916010900E0
6.714176823E0,2.145170271E-1,7.054757327E-2,9.906263351E0,9.908836869E0
6.719213750E0,2.145170271E-1,7.533853501E-2,9.865539551E0,9.868159103E0
6.724250625E0,2.145170271E-1,8.492057770E-2,9.875122070E0,9.877816812E0
6.729287500E0,2.025395185E-1,8.971153945E-2,9.913449287E0,9.915923920E0
6.734324427E0,1.977485269E-1,3.221957758E-2,9.865539551E0,9.867573826E0
6.739361302E0,2.049350291E-1,4.898803309E-2,9.920636177E0,9.922873593E0
6.744419635E0,1.977485269E-1,8.492057770E-2,9.896680832E0,9.899020531E0
6.749456510E0,1.881665289E-1,6.815206259E-2,9.903867722E0,9.905889521E0
6.754493437E0,1.785845160E-1,9.929358214E-2,9.887099266E0,9.889210461E0
6.759530312E0,2.145170271E-1,9.210705012E-2,9.863143921E0,9.865906409E0
6.764567187E0,2.312855273E-1,6.096558645E-2,9.884703636E0,9.887597068E0
6.769604062E0,1.929575205E-1,5.617456511E-2,9.899076462E0,9.901116249E0
6.774624791E0,1.785845160E-1,7.294308394E-2,9.884703636E0,9.886585816E0
6.779661666E0,2.121215165E-1,7.533853501E-2,9.894286156E0,9.896846466E0
6.784698541E0,1.953530163E-1,7.054757327E-2,9.877516747E0,9.879700240E0
6.789735468E0,2.145170271E-1,9.689807147E-2,9.853562355E0,9.856373465E0
6.794772291E0,2.121215165E-1,7.294308394E-2,9.867935181E0,9.870484333E0
6.799809218E0,1.977485269E-1,1.040845439E-1,9.870330811E0,9.872860193E0
6.804870416E0,2.073305249E-1,9.689807147E-2,9.889494896E0,9.892142563E0
6.809907343E0,1.785845160E-1,8.012955636E-2,9.896680832E0,9.898616300E0
6.814944218E0,1.929575205E-1,8.731608838E-2,9.870330811E0,9.872602849E0
6.819981093E0,1.761890203E-1,4.659258202E-2,9.865539551E0,9.867222713E0
6.825018021E0,1.881665289E-1,6.336104125E-2,9.882308006E0,9.884302342E0
6.830054896E0,2.073305249E-1,8.492057770E-2,9.882308006E0,9.884847444E0
6.835050625E0,2.049350291E-1,9.450256079E-2,9.889494896E0,9.892069470E0
6.840087552E0,2.145170271E-1,4.898803309E-2,9.911054611E0,9.913496905E0
6.845124427E0,1.953530163E-1,6.336104125E-2,9.918240547E0,9.920366575E0
6.850161302E0,2.145170271E-1,9.210705012E-2,9.882308006E0,9.885065139E0
6.855198229E0,2.025395185E-1,8.731608838E-2,9.887099266E0,9.889559052E0
6.860235104E0,2.097260207E-1,4.180156067E-2,9.899076462E0,9.901386124E0
6.865301458E0,2.145170271E-1,6.336104125E-2,9.894286156E0,9.896814170E0
6.870338333E0,2.073305249E-1,5.617456511E-2,9.882308006E0,9.884642283E0
6.875375208E0,2.217035294E-1,4.419707134E-2,9.872726440E0,9.875314334E0
6.880412135E0,2.001440227E-1,9.689807147E-2,9.894286156E0,9.896784599E0
6.885449010E0,2.025395185E-1,7.294308394E-2,9.908658981E0,9.910997213E0
6.890485885E0,1.929575205E-1,5.617456511E-2,9.915844917E0,9.917881256E0
6.895537968E0,2.049350291E-1,8.971153945E-2,9.891890526E0,9.894419877E0
6.900574896E0,2.264945209E-1,8.252506703E-2,9.877516747E0,9.880457845E0
6.905611823E0,1.977485269E-1,6.336104125E-2,9.896680832E0,9.898859055E0
6.910648698E0,1.953530163E-1,8.731608838E-2,9.915844917E0,9.918153423E0
6.915685573E0,2.049350291E-1,5.138354376E-2,9.901472092E0,9.903725976E0
6.920722448E0,2.240990251E-1,8.252506703E-2,9.930217743E0,9.933088904E0
6.925721718E0,2.169125229E-1,9.689807147E-2,9.887099266E0,9.889953093E0
6.930758593E0,1.809800267E-1,6.815206259E-2,9.896680832E0,9.898570097E0
6.935795521E0,2.169125229E-1,7.294308394E-2,9.877516747E0,9.880167449E0
6.940832396E0,2.169125229E-1,7.294308394E-2,9.889494896E0,9.892142388E0
6.945869323E0,2.145170271E-1,5.377905443E-2,9.887099266E0,9.889572369E0
6.950906198E0,2.121215165E-1,8.012955636E-2,9.882308006E0,9.884909095E0
6.955969739E0,1.977485269E-1,7.773404568E-2,9.865539551E0,9.867827405E0
6.961006614E0,1.833755225E-1,4.419707134E-2,9.877516747E0,9.879317640E0
6.966043541E0,1.666070223E-1,7.773404568E-2,9.896680832E0,9.898388352E0
6.971080364E0,1.977485269E-1,4.898803309E-2,9.894286156E0,9.896383321E0
6.976117291E0,2.360765189E-1,4.898803309E-2,9.882308006E0,9.885248782E0
6.981154218E0,2.121215165E-1,7.294308394E-2,9.848771095E0,9.851325206E0
6.986190833E0,2.025395185E-1,6.096558645E-2,9.899076462E0,9.901335963E0
6.991227708E0,1.929575205E-1,5.617456511E-2,9.901472092E0,9.903511386E0
6.996264635E0,1.905620247E-1,5.857007578E-2,9.877516747E0,9.879528401E0
7.001301458E0,2.145170271E-1,8.731608838E-2,9.923031807E0,9.925734325E0
7.006338385E0,2.025395185E-1,6.336104125E-2,9.887099266E0,9.889376561E0
7.011375260E0,1.833755225E-1,4.419707134E-2,9.855957985E0,9.857762817E0
7.016410052E0,1.809800267E-1,7.054757327E-2,9.887099266E0,9.889007161E0
7.021446979E0,1.594205201E-1,7.533853501E-2,9.894286156E0,9.895857180E0
7.026483906E0,1.881665289E-1,9.450256079E-2,9.901472092E0,9.903710767E0
7.031520729E0,2.001440227E-1,8.971153945E-2,9.903867722E0,9.906296060E0
7.036557656E0,1.833755225E-1,5.617456511E-2,9.930217743E0,9.932069602E0
7.041594531E0,1.809800267E-1,6.096558645E-2,9.906263351E0,9.908103964E0
7.046617135E0,2.145170271E-1,9.689807147E-2,9.891890526E0,9.894690746E0
7.051654062E0,2.001440227E-1,7.533853501E-2,9.891890526E0,9.894201923E0
7.056690937E0,2.097260207E-1,8.731608838E-2,9.903867722E0,9.906472881E0
7.061727812E0,2.121215165E-1,6.096558645E-2,9.872726440E0,9.875193148E0
7.066764739E0,1.929575205E-1,7.054757327E-2,9.875122070E0,9.877259006E0
7.071801614E0,2.049350291E-1,6.096558645E-2,9.913449287E0,9.915754734E0
7.076826927E0,1.977485269E-1,6.096558645E-2,9.887099266E0,9.889264542E0
7.081863854E0,1.905620247E-1,8.012955636E-2,9.872726440E0,9.874890480E0
7.086900729E0,1.929575205E-1,8.971153945E-2,9.932613373E0,9.934892510E0
7.091937604E0,2.097260207E-1,7.773404568E-2,9.887099266E0,9.889628885E0
7.096974531E0,1.881665289E-1,5.617456511E-2,9.855957985E0,9.857914081E0
7.102011406E0,1.785845160E-1,7.294308394E-2,9.899076462E0,9.900955909E0
7.107070885E0,1.905620247E-1,8.971153945E-2,9.889494896E0,9.891737529E0
7.112107760E0,2.240990251E-1,4.180156067E-2,9.899076462E0,9.901700992E0
7.117144687E0,2.073305249E-1,6.815206259E-2,9.927823067E0,9.930221624E0
7.122181510E0,1.833755225E-1,9.210705012E-2,9.853562355E0,9.855698929E0
7.127218437E0,2.025395185E-1,8.731608838E-2,9.851166725E0,9.853635482E0
7.132255312E0,2.073305249E-1,8.012955636E-2,9.875122070E0,9.877623327E0
7.137291823E0,1.881665289E-1,5.617456511E-2,9.889494896E0,9.891444360E0
7.142328698E0,1.977485269E-1,3.940605000E-2,9.884703636E0,9.886760000E0
7.147365573E0,1.905620247E-1,4.898803309E-2,9.877516747E0,9.879476241E0
7.152402500E0,2.121215165E-1,8.252506703E-2,9.860748291E0,9.863374817E0
7.157439375E0,2.049350291E-1,9.689807147E-2,9.899076462E0,9.901671697E0
7.162476250E0,1.785845160E-1,6.336104125E-2,9.891890526E0,9.893705333E0
7.167537916E0,2.193080187E-1,6.336104125E-2,9.870330811E0,9.872970219E0
7.172574791E0,2.408675253E-1,8.012955636E-2,9.920636177E0,9.923883316E0
7.177611771E0,2.049350291E-1,5.617456511E-2,9.901472092E0,9.903751993E0
7.182648646E0,1.905620247E-1,6.575655192E-2,9.894286156E0,9.896339542E0
7.187685625E0,2.097260207E-1,4.419707134E-2,9.891890526E0,9.894212276E0
7.192722500E0,1.857710183E-1,6.815206259E-2,9.906263351E0,9.908239458E0
7.197735677E0,1.977485269E-1,9.450256079E-2,9.899076462E0,9.901502412E0
7.202772604E0,2.049350291E-1,8.492057770E-2,9.887099266E0,9.889587543E0
7.207809531E0,2.193080187E-1,7.773404568E-2,9.848771095E0,9.851519207E0
7.212846458E0,2.001440227E-1,7.054757327E-2,9.875122070E0,9.877402011E0
7.217883385E0,2.097260207E-1,6.336104125E-2,9.846375465E0,9.848812590E0
7.222920260E0,2.169125229E-1,6.575655192E-2,9.894286156E0,9.896882009E0
7.227962500E0,2.121215165E-1,9.929358214E-2,9.891890526E0,9.894662851E0
7.232999427E0,2.097260207E-1,8.252506703E-2,9.911054611E0,9.913616842E0
7.238036354E0,2.312855273E-1,7.773404568E-2,9.870330811E0,9.873346236E0
7.243073281E0,2.169125229E-1,7.533853501E-2,9.906263351E0,9.908924287E0
7.248110208E0,1.809800267E-1,7.533853501E-2,9.891890526E0,9.893832818E0
7.253147083E0,1.761890203E-1,7.054757327E-2,9.891890526E0,9.893711018E0
7.258181406E0,1.857710183E-1,7.294308394E-2,9.877516747E0,9.879532815E0
7.263218281E0,1.690025181E-1,3.940605000E-2,9.884703636E0,9.886226816E0
7.268255260E0,1.857710183E-1,6.575655192E-2,9.908658981E0,9.910618427E0
7.273292135E0,1.977485269E-1,6.575655192E-2,9.935009003E0,9.937194387E0
7.278329114E0,2.049350291E-1,5.138354376E-2,9.863143921E0,9.865406562E0
7.283365989E0,2.025395185E-1,6.336104125E-2,9.867935181E0,9.870216898E0
7.288391718E0,2.193080187E-1,6.096558645E-2,9.923031807E0,9.925642198E0
7.293428698E0,2.193080187E-1,6.815206259E-2,9.867935181E0,9.870607146E0
7.298465625E0,2.145170271E-1,8.252506703E-2,9.884703636E0,9.887375482E0
7.303502552E0,1.857710183E-1,6.815206259E-2,9.870330811E0,9.872314110E0
7.308539427E0,1.833755225E-1,4.419707134E-2,9.867935181E0,9.869737823E0
7.313576354E0,2.169125229E-1,7.054757327E-2,9.889494896E0,9.892125014E0
7.318606458E0,1.953530163E-1,6.336104125E-2,9.884703636E0,9.886836875E0
7.323643385E0,2.049350291E-1,3.461508825E-2,9.870330811E0,9.872518771E0
7.328680312E0,1.929575205E-1,9.450256079E-2,9.858353615E0,9.860694668E0
7.333717239E0,2.049350291E-1,4.659258202E-2,9.867935181E0,9.870172945E0
7.338754166E0,2.073305249E-1,9.929358214E-2,9.937404633E0,9.940063179E0
7.343791041E0,2.097260207E-1,1.064800546E-1,9.906263351E0,9.909055283E0
7.348832604E0,2.049350291E-1,6.096558645E-2,9.894286156E0,9.896596066E0
7.353869531E0,2.121215165E-1,6.096558645E-2,9.896680832E0,9.899141570E0
7.358906458E0,2.145170271E-1,1.016890332E-1,9.863143921E0,9.866000518E0
7.363943385E0,1.905620247E-1,1.088755652E-1,9.875122070E0,9.877560614E0
7.368980312E0,1.881665289E-1,5.857007578E-2,9.923031807E0,9.924988531E0
7.374017239E0,2.145170271E-1,6.096558645E-2,9.896680832E0,9.899193192E0
7.379042604E0,2.049350291E-1,5.377905443E-2,9.853562355E0,9.855839976E0
7.384079531E0,1.761890203E-1,3.701053932E-2,9.901472092E0,9.903108700E0
7.389116458E0,1.905620247E-1,6.815206259E-2,9.918240547E0,9.920305144E0
7.394153385E0,1.881665289E-1,7.533853501E-2,9.915844917E0,9.917916261E0
7.399190312E0,2.073305249E-1,6.575655192E-2,9.899076462E0,9.901465784E0
7.404227239E0,2.097260207E-1,7.054757327E-2,9.887099266E0,9.889575009E0
7.409289843E0,2.001440227E-1,4.898803309E-2,9.901472092E0,9.903615857E0
7.414326771E0,1.833755225E-1,5.138354376E-2,9.870330811E0,9.872167805E0
7.419363698E0,2.145170271E-1,8.492057770E-2,9.908658981E0,9.911344604E0
7.424400573E0,1.929575205E-1,9.450256079E-2,9.918240547E0,9.920567468E0
7.429437552E0,1.761890203E-1,9.929358214E-2,9.884703636E0,9.886772363E0
7.434474427E0,1.905620247E-1,7.773404568E-2,9.908658981E0,9.910796097E0
7.439547812E0,2.073305249E-1,6.096558645E-2,9.913449287E0,9.915804532E0
7.444584739E0,2.240990251E-1,4.180156067E-2,9.887099266E0,9.889726975E0
7.449621666E0,2.001440227E-1,8.012955636E-2,9.839189529E0,9.841551147E0
7.454658541E0,1.905620247E-1,6.336104125E-2,9.884703636E0,9.886743371E0
7.459695468E0,1.881665289E-1,9.929358214E-2,9.882308006E0,9.884597988E0
7.464732396E0,2.025395185E-1,8.971153945E-2,9.906263351E0,9.908739779E0
7.469769427E0,2.312855273E-1,3.221957758E-2,9.865539551E0,9.868302880E0
7.474806302E0,2.193080187E-1,6.096558645E-2,9.906263351E0,9.908878160E0
7.479843229E0,1.953530163E-1,1.040845439E-1,9.918240547E0,9.920710254E0
7.484880156E0,1.929575205E-1,5.377905443E-2,9.879912376E0,9.881942793E0
7.489917083E0,1.905620247E-1,4.419707134E-2,9.891890526E0,9.893824611E0
7.494954010E0,2.073305249E-1,6.336104125E-2,9.911054611E0,9.913425446E0
7.499948437E0,2.073305249E-1,7.773404568E-2,9.901472092E0,9.903947602E0
7.504985416E0,2.025395185E-1,7.773404568E-2,9.879912376E0,9.882293934E0
7.510022343E0,2.145170271E-1,5.377905443E-2,9.879912376E0,9.882387278E0
7.515059271E0,2.025395185E-1,7.054757327E-2,9.884703636E0,9.887030150E0
7.520096146E0,1.881665289E-1,6.815206259E-2,9.891890526E0,9.893914772E0
7.525133073E0,1.857710183E-1,9.210705012E-2,9.884703636E0,9.886878201E0
7.530173385E0,2.073305249E-1,9.210705012E-2,9.889494896E0,9.892096792E0
7.535210312E0,2.001440227E-1,8.492057770E-2,9.887099266E0,9.889489422E0
7.540247239E0,2.073305249E-1,8.492057770E-2,9.901472092E0,9.904006615E0
7.545284166E0,1.666070223E-1,8.252506703E-2,9.915844917E0,9.917587847E0
7.550321093E0,2.097260207E-1,4.898803309E-2,9.903867722E0,9.906209198E0
7.555358021E0,1.785845160E-1,5.138354376E-2,9.884703636E0,9.886450256E0
7.560407500E0,1.666070223E-1,4.419707134E-2,9.867935181E0,9.869440512E0
7.565444427E0,2.264945209E-1,4.659258202E-2,9.903867722E0,9.906566836E0
7.570481354E0,2.217035294E-1,6.336104125E-2,9.896680832E0,9.899366574E0
7.575518281E0,2.169125229E-1,7.533853501E-2,9.891890526E0,9.894555327E0
7.580555208E0,1.809800267E-1,1.088755652E-1,9.901472092E0,9.903724413E0
7.585592083E0,1.881665289E-1,7.773404568E-2,9.891890526E0,9.893985415E0
7.590625260E0,1.977485269E-1,8.492057770E-2,9.851166725E0,9.853517231E0
7.595662187E0,2.049350291E-1,8.492057770E-2,9.903867722E0,9.906351786E0
7.600699114E0,1.857710183E-1,5.377905443E-2,9.915844917E0,9.917730763E0
7.605736041E0,2.169125229E-1,7.294308394E-2,9.855957985E0,9.858614484E0
7.610772968E0,1.833755225E-1,7.294308394E-2,9.872726440E0,9.874698712E0
7.615809843E0,2.073305249E-1,6.096558645E-2,9.901472092E0,9.903830185E0
7.620820521E0,2.121215165E-1,6.575655192E-2,9.899076462E0,9.901567263E0
7.625857448E0,2.217035294E-1,8.012955636E-2,9.887099266E0,9.889909256E0
7.630894375E0,2.121215165E-1,6.096558645E-2,9.894286156E0,9.896747490E0
7.635931302E0,2.049350291E-1,6.336104125E-2,9.882308006E0,9.884635781E0
7.640968229E0,1.857710183E-1,7.533853501E-2,9.875122070E0,9.877156609E0
7.646005104E0,1.857710183E-1,8.492057770E-2,9.906263351E0,9.908368986E0
7.651057864E0,2.073305249E-1,5.377905443E-2,9.901472092E0,9.903788554E0
7.656094791E0,2.264945209E-1,7.054757327E-2,9.913449287E0,9.916287284E0
7.661131718E0,2.001440227E-1,6.096558645E-2,9.925427437E0,9.927632358E0
7.666168593E0,1.833755225E-1,7.533853501E-2,9.887099266E0,9.889086630E0
7.671205573E0,2.001440227E-1,1.112710759E-1,9.913449287E0,9.916093770E0
7.676242448E0,1.881665289E-1,8.492057770E-2,9.906263351E0,9.908414189E0
7.681288385E0,1.833755225E-1,5.857007578E-2,9.870330811E0,9.872207825E0
7.686325312E0,2.001440227E-1,7.773404568E-2,9.875122070E0,9.877455954E0
7.691362187E0,2.145170271E-1,8.731608838E-2,9.894286156E0,9.896996523E0
7.696399114E0,2.073305249E-1,7.533853501E-2,9.908658981E0,9.911114198E0
7.701436041E0,1.833755225E-1,6.815206259E-2,9.915844917E0,9.917774534E0
7.706472968E0,1.737935245E-1,7.294308394E-2,9.908658981E0,9.910451437E0
7.711526979E0,1.809800267E-1,8.492057770E-2,9.913449287E0,9.915464792E0
7.716563906E0,2.145170271E-1,8.731608838E-2,9.870330811E0,9.873047755E0
7.721600833E0,2.001440227E-1,7.294308394E-2,9.867935181E0,9.870234194E0
7.726637760E0,2.169125229E-1,9.929358214E-2,9.877516747E0,9.880397124E0
7.731674687E0,2.049350291E-1,9.929358214E-2,9.877516747E0,9.880141429E0
7.736711562E0,2.025395185E-1,5.377905443E-2,9.877516747E0,9.879739446E0
7.741704114E0,1.642115265E-1,6.815206259E-2,9.867935181E0,9.869536709E0
7.746741041E0,2.025395185E-1,8.492057770E-2,9.882308006E0,9.884748115E0
7.751777968E0,1.977485269E-1,8.252506703E-2,9.875122070E0,9.877446571E0
7.756814896E0,2.025395185E-1,5.617456511E-2,9.887099266E0,9.889333129E0
7.761851823E0,2.264945209E-1,6.815206259E-2,9.908658981E0,9.911481589E0
7.766888750E0,2.145170271E-1,5.377905443E-2,9.870330811E0,9.872808114E0
7.771933437E0,2.073305249E-1,7.054757327E-2,9.875122070E0,9.877550243E0
7.776970364E0,1.833755225E-1,5.857007578E-2,9.877516747E0,9.879392396E0
7.782007291E0,2.001440227E-1,6.815206259E-2,9.896680832E0,9.898939025E0
7.787044218E0,1.977485269E-1,4.419707134E-2,9.894286156E0,9.896360765E0
7.792081146E0,2.025395185E-1,5.857007578E-2,9.889494896E0,9.891742112E0
7.797118021E0,1.857710183E-1,5.617456511E-2,9.891890526E0,9.893794248E0
7.802172239E0,1.809800267E-1,8.252506703E-2,9.918240547E0,9.920234862E0
7.807209114E0,2.049350291E-1,8.012955636E-2,9.915844917E0,9.918286119E0
7.812246041E0,1.881665289E-1,7.294308394E-2,9.841585159E0,9.843654087E0
7.817282968E0,1.666070223E-1,8.731608838E-2,9.865539551E0,9.867332599E0
7.822319896E0,2.049350291E-1,5.138354376E-2,9.877516747E0,9.879776096E0
7.827356823E0,2.097260207E-1,9.210705012E-2,9.911054611E0,9.913701237E0
7.832358698E0,2.025395185E-1,1.016890332E-1,9.903867722E0,9.906460456E0
7.837395625E0,2.049350291E-1,4.419707134E-2,9.896680832E0,9.898901113E0
7.842432552E0,2.025395185E-1,8.012955636E-2,9.894286156E0,9.896683360E0
7.847469479E0,2.240990251E-1,8.492057770E-2,9.887099266E0,9.890003224E0
7.852506406E0,2.121215165E-1,7.773404568E-2,9.894286156E0,9.896864991E0
7.857543333E0,1.977485269E-1,6.815206259E-2,9.891890526E0,9.894101645E0
7.862627083E0,1.977485269E-1,5.857007578E-2,9.877516747E0,9.879669631E0
7.867663958E0,2.240990251E-1,1.088755652E-1,9.863143921E0,9.866290198E0
7.872700885E0,2.049350291E-1,6.815206259E-2,9.870330811E0,9.872693319E0
7.877737812E0,1.953530163E-1,8.252506703E-2,9.915844917E0,9.918112402E0
7.882774739E0,2.169125229E-1,5.857007578E-2,9.877516747E0,9.880071790E0
7.887811666E0,2.001440227E-1,7.533853501E-2,9.877516747E0,9.879831507E0
7.892824843E0,2.001440227E-1,6.096558645E-2,9.884703636E0,9.886917639E0
7.897861771E0,1.953530163E-1,1.040845439E-1,9.867935181E0,9.870417475E0
7.902898698E0,1.929575205E-1,1.160620376E-1,9.846375465E0,9.848949833E0
7.907935625E0,2.073305249E-1,8.731608838E-2,9.901472092E0,9.904027445E0
7.912972552E0,2.073305249E-1,4.659258202E-2,9.889494896E0,9.891777702E0
7.918009427E0,2.097260207E-1,7.054757327E-2,9.860748291E0,9.863230648E0
7.923058229E0,2.121215165E-1,1.256440729E-1,9.865539551E0,9.868619589E0
7.928095104E0,2.049350291E-1,7.533853501E-2,9.906263351E0,9.908669328E0
7.933132083E0,2.025395185E-1,8.012955636E-2,9.889494896E0,9.891893262E0
7.938169010E0,1.737935245E-1,6.575655192E-2,9.877516747E0,9.879264405E0
7.943205937E0,1.953530163E-1,8.012955636E-2,9.896680832E0,9.898933025E0
7.948242812E0,2.097260207E-1,7.533853501E-2,9.872726440E0,9.875241175E0
7.953281146E0,2.121215165E-1,6.815206259E-2,9.879912376E0,9.882424237E0
7.958318073E0,2.288900167E-1,4.898803309E-2,9.889494896E0,9.892264643E0
7.963355000E0,2.025395185E-1,1.064800546E-1,9.867935181E0,9.870587875E0
7.968391979E0,2.145170271E-1,8.731608838E-2,9.894286156E0,9.896996523E0
7.973428854E0,2.240990251E-1,8.252506703E-2,9.901472092E0,9.904351586E0
7.978465781E0,2.193080187E-1,8.731608838E-2,9.894286156E0,9.897101527E0
7.983523177E0,2.001440227E-1,5.377905443E-2,9.913449287E0,9.915615291E0
7.988560052E0,1.929575205E-1,6.815206259E-2,9.882308006E0,9.884426581E0
7.993597031E0,2.121215165E-1,7.054757327E-2,9.867935181E0,9.870466920E0
7.998633906E0,1.905620247E-1,4.180156067E-2,9.891890526E0,9.893814200E0
8.003670833E0,1.929575205E-1,1.112710759E-1,9.923031807E0,9.925531427E0
8.008707760E0,2.001440227E-1,7.054757327E-2,9.927823067E0,9.930090908E0
8.013710937E0,2.145170271E-1,5.377905443E-2,9.865539551E0,9.868018057E0
8.018747864E0,1.977485269E-1,4.898803309E-2,9.865539551E0,9.867642826E0
8.023784791E0,2.049350291E-1,5.617456511E-2,9.843979836E0,9.846273049E0
8.028821718E0,1.809800267E-1,7.054757327E-2,9.875122070E0,9.877032279E0
8.033858646E0,2.001440227E-1,1.136665866E-1,9.870330811E0,9.873014131E0
8.038895573E0,2.288900167E-1,6.336104125E-2,9.889494896E0,9.892346262E0
8.043939531E0,1.905620247E-1,8.731608838E-2,9.927823067E0,9.930035691E0
8.048976458E0,2.049350291E-1,8.252506703E-2,9.899076462E0,9.901541473E0
8.054013385E0,2.217035294E-1,3.701053932E-2,9.867935181E0,9.870494768E0
8.059050312E0,1.857710183E-1,6.096558645E-2,9.877516747E0,9.879451642E0
8.064087239E0,2.001440227E-1,7.773404568E-2,9.901472092E0,9.903799765E0
8.069124114E0,2.240990251E-1,6.815206259E-2,9.899076462E0,9.901847296E0
8.074161302E0,1.929575205E-1,8.012955636E-2,9.882308006E0,9.884516421E0
8.079198177E0,1.785845160E-1,9.689807147E-2,9.887099266E0,9.889186699E0
8.084235104E0,2.001440227E-1,1.160620376E-1,9.906263351E0,9.908964710E0
8.089272031E0,2.097260207E-1,7.773404568E-2,9.899076462E0,9.901603021E0
8.094308958E0,1.953530163E-1,5.377905443E-2,9.891890526E0,9.893965492E0
8.099345885E0,1.929575205E-1,7.773404568E-2,9.867935181E0,9.870127655E0
8.104375260E0,1.905620247E-1,9.929358214E-2,9.884703636E0,9.887038944E0
8.109412187E0,2.025395185E-1,9.450256079E-2,9.901472092E0,9.903994274E0
8.114449114E0,2.001440227E-1,8.731608838E-2,9.913449287E0,9.915853897E0
8.119485989E0,1.809800267E-1,4.659258202E-2,9.889494896E0,9.891260483E0
8.124522916E0,1.857710183E-1,7.054757327E-2,9.891890526E0,9.893886294E0
8.129559896E0,2.001440227E-1,5.138354376E-2,9.879912376E0,9.882072984E0
8.134623437E0,1.929575205E-1,1.064800546E-1,9.882308006E0,9.884765153E0
8.139660364E0,2.145170271E-1,7.533853501E-2,9.877516747E0,9.880133123E0
8.144697239E0,2.121215165E-1,6.336104125E-2,9.894286156E0,9.896762536E0
8.149734166E0,1.761890203E-1,7.773404568E-2,9.906263351E0,9.908134978E0
8.154771146E0,2.073305249E-1,5.617456511E-2,9.894286156E0,9.896617607E0
8.159808021E0,1.881665289E-1,9.450256079E-2,9.877516747E0,9.879760850E0
8.164819271E0,2.097260207E-1,4.659258202E-2,9.879912376E0,9.882247945E0
8.169856146E0,1.929575205E-1,7.773404568E-2,9.920636177E0,9.922817006E0
8.174893125E0,1.977485269E-1,6.815206259E-2,9.903867722E0,9.906076167E0
8.179930000E0,1.929575205E-1,4.180156067E-2,9.855957985E0,9.857935269E0
8.184966979E0,2.121215165E-1,5.377905443E-2,9.908658981E0,9.911075145E0
8.190003854E0,2.073305249E-1,7.533853501E-2,9.913449287E0,9.915903318E0
8.195028802E0,2.025395185E-1,6.815206259E-2,9.867935181E0,9.870248816E0
8.200065729E0,1.929575205E-1,3.701053932E-2,9.903867722E0,9.905816384E0
8.205102604E0,1.953530163E-1,7.294308394E-2,9.894286156E0,9.896483316E0
8.210139479E0,2.025395185E-1,7.054757327E-2,9.932613373E0,9.934928668E0
8.215176354E0,1.929575205E-1,9.689807147E-2,9.923031807E0,9.925380702E0
8.220213229E0,2.121215165E-1,6.815206259E-2,9.887099266E0,9.889609302E0
8.225284427E0,1.977485269E-1,7.054757327E-2,9.891890526E0,9.894118435E0
8.230321354E0,1.881665289E-1,6.096558645E-2,9.877516747E0,9.879496977E0
8.235358229E0,2.001440227E-1,6.096558645E-2,9.896680832E0,9.898892156E0
8.240395104E0,2.145170271E-1,7.294308394E-2,9.875122070E0,9.877721101E0
8.245431979E0,2.169125229E-1,8.731608838E-2,9.887099266E0,9.889863853E0
8.250468854E0,1.905620247E-1,7.773404568E-2,9.875122070E0,9.877266442E0
8.255501718E0,2.145170271E-1,6.815206259E-2,9.906263351E0,9.908820104E0
8.260538593E0,1.953530163E-1,1.112710759E-1,9.865539551E0,9.868100865E0
8.265575468E0,2.073305249E-1,8.731608838E-2,9.863143921E0,9.865709202E0
8.270612343E0,2.121215165E-1,6.336104125E-2,9.877516747E0,9.879997330E0
8.275649218E0,2.145170271E-1,7.533853501E-2,9.899076462E0,9.901687141E0
8.280686146E0,2.193080187E-1,5.138354376E-2,9.882308006E0,9.884874699E0
8.285695885E0,2.169125229E-1,7.054757327E-2,9.884703636E0,9.887335029E0
8.290732760E0,1.857710183E-1,7.294308394E-2,9.884703636E0,9.886718239E0
8.295769635E0,1.761890203E-1,8.252506703E-2,9.901472092E0,9.903383389E0
8.300806562E0,1.785845160E-1,8.012955636E-2,9.882308006E0,9.884246289E0
8.305843437E0,1.953530163E-1,6.815206259E-2,9.865539551E0,9.867708859E0
8.310880312E0,2.145170271E-1,5.857007578E-2,9.851166725E0,9.853676159E0
8.315939271E0,1.977485269E-1,7.054757327E-2,9.891890526E0,9.894118435E0
8.320976146E0,2.145170271E-1,3.940605000E-2,9.906263351E0,9.908664087E0
8.326013021E0,2.240990251E-1,6.336104125E-2,9.872726440E0,9.875472767E0
8.331049896E0,2.001440227E-1,8.012955636E-2,9.901472092E0,9.903818857E0
8.336086771E0,1.929575205E-1,5.377905443E-2,9.920636177E0,9.922658260E0
8.341123646E0,1.857710183E-1,5.857007578E-2,9.896680832E0,9.898597518E0
8.346146666E0,1.953530163E-1,5.617456511E-2,9.875122070E0,9.877213893E0
8.351183541E0,2.240990251E-1,6.815206259E-2,9.901472092E0,9.904242256E0
8.356220416E0,2.025395185E-1,6.815206259E-2,9.887099266E0,9.889408418E0
8.361257291E0,2.169125229E-1,8.012955636E-2,9.884703636E0,9.887408041E0
8.366294218E0,1.953530163E-1,9.210705012E-2,9.867935181E0,9.870298437E0
