"Time (s)","Acceleration x (m/s^2)","Acceleration y (m/s^2)","Acceleration z (m/s^2)","Absolute acceleration (m/s^2)"
0.000000000E0,4.730034828E0,6.710873604E0,4.116339207E0,9.184405395E0
5.036614000E-3,4.873764515E0,6.763574600E0,3.895953178E0,9.202063523E0
1.010223900E-2,4.993539810E0,6.744410515E0,3.735454798E0,9.185648348E0
1.513885400E-2,5.132478714E0,6.677336693E0,3.630052805E0,9.170956680E0
2.017546900E-2,5.261835575E0,6.547979832E0,3.536628246E0,9.114312527E0
2.521203100E-2,5.441498280E0,6.444973469E0,3.510277748E0,9.136171868E0
3.024864600E-2,5.700212002E0,6.344362259E0,3.570165157E0,9.246049350E0
3.528526000E-2,5.934971333E0,6.212609768E0,3.613284349E0,9.320741850E0
4.025588500E-2,6.148170471E0,6.114394188E0,3.627657175E0,9.399240023E0
4.529244800E-2,6.366161346E0,6.023365021E0,3.725872755E0,9.523185615E0
5.032906200E-2,6.564987659E0,5.970664024E0,3.836065769E0,9.667641514E0
5.536567700E-2,6.672785282E0,5.913172245E0,3.948654175E0,9.751078874E0
6.040223900E-2,6.821306229E0,5.814956665E0,4.032496929E0,9.828782792E0
6.543890600E-2,6.993782043E0,5.771837711E0,4.097175121E0,9.950574949E0
7.048750000E-2,7.204586029E0,5.711950302E0,4.161853790E0,1.009224767E1
7.552411400E-2,7.415390015E0,5.589779854E0,4.166644573E0,1.017814202E1
8.056067700E-2,7.619007587E0,5.498750687E0,4.166644573E0,1.027844651E1
8.559734400E-2,7.765132904E0,5.491564274E0,4.183413029E0,1.039016418E1
9.063390600E-2,7.860953331E0,5.470004559E0,4.140294075E0,1.043348322E1
9.567052100E-2,7.904072285E0,5.407721519E0,4.058847427E0,1.040154090E1
1.006926040E-1,7.954377651E0,5.340647697E0,4.018123627E0,1.038941573E1
1.057292710E-1,7.983123779E0,5.266387463E0,3.953445435E0,1.034866334E1
1.107658330E-1,8.124457359E0,5.213686466E0,3.912721634E0,1.041627210E1
1.158024480E-1,8.256210327E0,5.201708794E0,3.728268147E0,1.044618431E1
1.208390100E-1,8.373589516E0,5.208895206E0,3.613284349E0,1.050263845E1
1.258756770E-1,8.476595879E0,5.228059292E0,3.565374136E0,1.057814607E1
1.309319270E-1,8.593976021E0,5.223268032E0,3.584538221E0,1.067651006E1
1.359685420E-1,8.625117302E0,5.249618530E0,3.601306677E0,1.072010042E1
1.410051040E-1,8.596370697E0,5.280760288E0,3.574956179E0,1.070347280E1
1.460417710E-1,8.524506569E0,5.290342331E0,3.515068769E0,1.063064639E1
1.510783330E-1,8.493364334E0,5.292737961E0,3.447994709E0,1.058484673E1
1.561149480E-1,8.534088135E0,5.316692829E0,3.383316278E0,1.060870925E1
1.611436460E-1,8.560439110E0,5.285551071E0,3.323428631E0,1.059543986E1
1.661802600E-1,8.546065331E0,5.287946701E0,3.378525257E0,1.060245471E1
1.712168230E-1,8.534088135E0,5.208895206E0,3.392898321E0,1.055817260E1
1.762534370E-1,8.541275024E0,5.139425755E0,3.364152193E0,1.052067470E1
1.812900520E-1,8.574811935E0,5.153798580E0,3.366547823E0,1.055569438E1
1.863266140E-1,8.625117302E0,5.149007797E0,3.294682741E0,1.057165380E1
1.913634370E-1,8.682609558E0,5.144216537E0,3.208444834E0,1.058984376E1
1.964000520E-1,8.730519295E0,5.125052929E0,3.100647211E0,1.058783017E1
2.014366670E-1,8.797593117E0,5.034023762E0,3.019200325E0,1.057613400E1
2.064732810E-1,8.838316917E0,4.923830986E0,3.004827261E0,1.055409609E1
2.115098440E-1,8.864666939E0,4.883107185E0,2.983267784E0,1.055115834E1
2.165464580E-1,8.883831024E0,4.777705193E0,3.000036240E0,1.052374164E1
2.215805210E-1,8.871853828E0,4.811242104E0,2.978476763E0,1.052279263E1
2.266171870E-1,8.912576675E0,4.823219776E0,2.870679140E0,1.053272380E1
2.316537500E-1,8.831130028E0,4.830406189E0,2.791627645E0,1.044580616E1
2.366903640E-1,8.711355209E0,4.854361057E0,2.683830261E0,1.032741380E1
2.417269270E-1,8.572416306E0,4.897480011E0,2.532913685E0,1.019251115E1
2.467635940E-1,8.469409943E0,4.902271271E0,2.410743237E0,1.007843496E1
2.517775520E-1,8.428686142E0,4.875920773E0,2.298154831E0,1.000494223E1
2.568142190E-1,8.419104576E0,4.808846951E0,2.190357208E0,9.940019897E0
2.618507810E-1,8.402336121E0,4.823219776E0,2.152029276E0,9.924410879E0
2.668873960E-1,8.416708946E0,4.746563435E0,2.185566187E0,9.906944710E0
2.719239580E-1,8.450245857E0,4.763332367E0,2.178379774E0,9.941897642E0
2.769606250E-1,8.467014313E0,4.775309563E0,2.192752838E0,9.965042790E0
2.820314060E-1,8.538879395E0,4.760936737E0,2.240662813E0,1.002993269E1
2.870680210E-1,8.572416306E0,4.744168282E0,2.240662813E0,1.005057331E1
2.921045830E-1,8.622721672E0,4.734586239E0,2.211916685E0,1.008266886E1
2.971412500E-1,8.613140106E0,4.679489613E0,2.219103336E0,1.005028483E1
3.021778120E-1,8.620326042E0,4.672303200E0,2.204730272E0,1.004993900E1
3.072144270E-1,8.613140106E0,4.677093983E0,2.187961817E0,1.004233875E1
3.122583330E-1,8.596370697E0,4.662721157E0,2.135260820E0,1.000988994E1
3.172949480E-1,8.548460960E0,4.645952702E0,2.061000347E0,9.945289525E0
3.223315100E-1,8.526901245E0,4.672303200E0,1.941225290E0,9.914979458E0
3.273681250E-1,8.560439110E0,4.681885242E0,1.840614319E0,9.929200786E0
3.324047390E-1,8.505342484E0,4.612415791E0,1.828636646E0,9.846783341E0
3.374413540E-1,8.512528419E0,4.593251705E0,1.869360209E0,9.851680512E0
3.424786980E-1,8.507738113E0,4.655534744E0,1.962784767E0,9.894853996E0
3.475153120E-1,8.538879395E0,4.722608566E0,2.106514692E0,9.982629770E0
3.525518750E-1,8.562833786E0,4.725004196E0,2.195148230E0,1.002329601E1
3.575885420E-1,8.567625046E0,4.792078018E0,2.187961817E0,1.005760347E1
3.626251040E-1,8.570020676E0,4.832801819E0,2.259826660E0,1.009495143E1
3.676617190E-1,8.581997871E0,4.866338730E0,2.247849226E0,1.011853578E1
3.726658330E-1,8.593976021E0,4.856756687E0,2.221498728E0,1.011827880E1
3.777025000E-1,8.615534782E0,4.851965904E0,2.171193361E0,1.012339337E1
3.827390620E-1,8.637094498E0,4.823219776E0,2.068186760E0,1.010644581E1
3.877756770E-1,8.562833786E0,4.772913933E0,1.936434269E0,9.992627659E0
3.928122390E-1,8.474200249E0,4.715422153E0,1.766353726E0,9.857346571E0
3.978489060E-1,8.390357971E0,4.662721157E0,1.663347244E0,9.741960764E0
4.029139580E-1,8.308911324E0,4.653139114E0,1.574713707E0,9.652431521E0
4.079505730E-1,8.253814697E0,4.720212936E0,1.481289268E0,9.622893802E0
4.129871870E-1,8.239441872E0,4.770518780E0,1.457334280E0,9.631722327E0
4.180238020E-1,8.203509331E0,4.744168282E0,1.411819696E0,9.581123780E0
4.230603640E-1,8.227463722E0,4.828010559E0,1.347141266E0,9.634087131E0
4.280969790E-1,8.263396263E0,4.825615406E0,1.330372691E0,9.661271829E0
4.331307810E-1,8.311306953E0,4.818428516E0,1.366305232E0,9.703703758E0
4.381673960E-1,8.332865715E0,4.804055691E0,1.433379292E0,9.724719960E0
4.432040100E-1,8.354425430E0,4.861547947E0,1.526803732E0,9.785816386E0
4.482405730E-1,8.411917686E0,4.907062054E0,1.610646248E0,9.870856016E0
4.532771870E-1,8.500551224E0,4.995695591E0,1.694488764E0,1.000438093E1
4.583138020E-1,8.644281387E0,5.096306801E0,1.783122301E0,1.019193156E1
4.633499480E-1,8.680213928E0,5.175358295E0,1.811868191E0,1.026709860E1
4.683865620E-1,8.673027039E0,5.182544708E0,1.790308714E0,1.026086609E1
4.734231250E-1,8.673027039E0,5.225663662E0,1.761562705E0,1.027774595E1
4.784597920E-1,8.627512932E0,5.223268032E0,1.730421185E0,1.023283274E1
4.834963540E-1,8.615534782E0,5.192126751E0,1.809472799E0,1.022055828E1
4.885329690E-1,8.579602242E0,5.223268032E0,1.775935769E0,1.020029663E1
4.935595310E-1,8.447850227E0,5.259200573E0,1.780726790E0,1.010922114E1
4.985961460E-1,8.387962341E0,5.225663662E0,1.816659212E0,1.004817016E1
5.036327600E-1,8.323284149E0,5.175358295E0,1.799890757E0,9.964988673E0
5.086693750E-1,8.299328804E0,5.172962666E0,1.754376292E0,9.935604537E0
5.137059370E-1,8.328075409E0,5.201708794E0,1.747189760E0,9.973328755E0
5.187425520E-1,8.301724434E0,5.220872879E0,1.747189760E0,9.961366084E0
5.238020830E-1,8.270583153E0,5.220872879E0,1.725630283E0,9.931659437E0
5.288387500E-1,8.284955978E0,5.252014160E0,1.692093253E0,9.954261795E0
5.338753120E-1,8.308911324E0,5.213686466E0,1.713652730E0,9.957767804E0
5.389119270E-1,8.275374413E0,5.225663662E0,1.641787767E0,9.923953318E0
5.439485420E-1,8.241837502E0,5.232850075E0,1.581900239E0,9.890046192E0
5.489851560E-1,8.280164719E0,5.220872879E0,1.605855227E0,9.919546985E0
5.539827600E-1,8.280164719E0,5.206499577E0,1.490871191E0,9.894011447E0
5.590193750E-1,8.282560349E0,5.247223377E0,1.371096253E0,9.900205252E0
5.640559890E-1,8.335261345E0,5.268782616E0,1.315999746E0,9.948291676E0
5.690925520E-1,8.373589516E0,5.343043327E0,1.265694261E0,1.001334586E1
5.741291670E-1,8.347239494E0,5.350229740E0,1.313604236E0,1.000134599E1
5.791657810E-1,8.272978783E0,5.292737961E0,1.423797250E0,9.923832509E0
5.842039060E-1,8.213090897E0,5.278364658E0,1.536385775E0,9.883141039E0
5.892405210E-1,8.160389900E0,5.278364658E0,1.603459716E0,9.850085271E0
5.942770830E-1,8.078943253E0,5.263991833E0,1.684906721E0,9.788658986E0
5.993136980E-1,8.016660690E0,5.299924374E0,1.629810214E0,9.747426754E0
6.043502600E-1,7.980728149E0,5.263991833E0,1.610646248E0,9.695143792E0
6.093869270E-1,7.894490242E0,5.213686466E0,1.579504728E0,9.591680663E0
6.144660420E-1,7.841789246E0,5.168171883E0,1.574713707E0,9.522782285E0
6.195026560E-1,7.750760078E0,5.141821384E0,1.550758719E0,9.429605588E0
6.245392190E-1,7.700454712E0,5.079538345E0,1.483684778E0,9.343448672E0
6.295758850E-1,7.674104214E0,5.022046089E0,1.421401739E0,9.280797666E0
6.346124480E-1,7.736387253E0,4.954972267E0,1.296835780E0,9.278212163E0
6.396490620E-1,7.834602833E0,4.883107185E0,1.162687778E0,9.304707422E0
6.446482810E-1,7.916049480E0,4.842383862E0,1.126755238E0,9.347839227E0
6.496849480E-1,8.040615082E0,4.782496452E0,9.878162146E-1,9.407419629E0
6.547215100E-1,8.124457359E0,4.722608566E0,9.111602306E-1,9.441400956E0
6.597581250E-1,8.141225815E0,4.672303200E0,8.728322983E-1,9.427184690E0
6.647947390E-1,8.191531181E0,4.665116787E0,8.536682129E-1,9.465370946E0
6.698313540E-1,8.232254982E0,4.655534744E0,7.746167183E-1,9.489154699E0
6.748882810E-1,8.263396263E0,4.624392986E0,7.386842370E-1,9.498125220E0
6.799248960E-1,8.313702583E0,4.624392986E0,6.979607344E-1,9.538857915E0
6.849615100E-1,8.404730797E0,4.636370659E0,6.931697130E-1,9.623716377E0
6.899981250E-1,8.476595879E0,4.645952702E0,7.746167183E-1,9.697297833E0
6.950346870E-1,8.574811935E0,4.696258068E0,8.752276897E-1,9.815715108E0
7.000713020E-1,8.696982384E0,4.722608566E0,1.016562223E0,9.948564369E0
7.051108330E-1,8.795197487E0,4.748959064E0,1.196224689E0,1.006673058E1
7.101474480E-1,9.006001472E0,4.734586239E0,1.361514211E0,1.026538311E1
7.151840100E-1,9.291066170E0,4.638766289E0,1.512430787E0,1.049426082E1
7.202206770E-1,9.636017799E0,4.550132751E0,1.658556223E0,1.078458881E1
7.252572390E-1,1.000971603E1,4.437544346E0,1.797495127E0,1.109581920E1
7.302938540E-1,1.040018272E1,4.265068054E0,1.919665813E0,1.140349609E1
7.353270310E-1,1.061577797E1,4.085405827E0,1.986739635E0,1.154696571E1
7.403636460E-1,1.075950718E1,3.845855474E0,1.888524294E0,1.158119696E1
7.454002080E-1,1.087928295E1,3.745244503E0,1.627414703E0,1.162041878E1
7.504368750E-1,1.088886452E1,3.690148115E0,1.229761720E0,1.156273659E1
7.554734370E-1,1.083137226E1,3.591932535E0,7.386842370E-1,1.143530755E1
7.605100520E-1,1.066129208E1,3.567977428E0,3.482177258E-1,1.124788279E1
7.655395310E-1,1.055349445E1,3.532045126E0,-4.703974724E-2,1.112896225E1
7.705761980E-1,1.044090652E1,3.577559471E0,-4.399017394E-1,1.104558619E1
7.756127600E-1,1.023489285E1,3.587141514E0,-7.824582458E-1,1.087349331E1
7.806493750E-1,9.957015038E0,3.644633532E0,-9.956577420E-1,1.064973410E1
7.856859370E-1,9.636017799E0,3.773990393E0,-1.287908792E0,1.042854504E1
7.907225520E-1,9.281484604E0,3.838669062E0,-1.505899310E0,1.015623303E1
7.957630730E-1,8.879039764E0,3.932093620E0,-1.632860780E0,9.847077826E0
8.007996870E-1,8.541275024E0,4.075823784E0,-1.838873744E0,9.640911534E0
8.058363020E-1,8.270583153E0,4.293814182E0,-1.891574740E0,9.508808596E0
8.108728640E-1,8.107689857E0,4.425566673E0,-1.810127735E0,9.412589316E0
8.159094790E-1,7.942399979E0,4.614810944E0,-1.649629235E0,9.332709900E0
8.209460940E-1,7.829811573E0,4.765727520E0,-1.503503799E0,9.288629164E0
8.259859370E-1,7.779506207E0,4.873525143E0,-1.259162784E0,9.265929799E0
8.310225520E-1,7.774714947E0,4.935808182E0,-9.357702732E-1,9.256568528E0
8.360591670E-1,7.875326157E0,5.007673264E0,-6.387282610E-1,9.354438913E0
8.410957810E-1,7.966355324E0,5.057978630E0,-3.895962536E-1,9.444456057E0
8.461323440E-1,8.110084534E0,5.079538345E0,-2.147247493E-1,9.571900943E0
8.511689580E-1,8.316097260E0,5.120261669E0,-1.021362394E-1,9.766523691E0
8.562047390E-1,8.526901245E0,5.062769890E0,-1.350274775E-2,9.916645911E0
8.612413540E-1,8.735310555E0,5.017255306E0,-3.506223857E-2,1.007371484E1
8.662779690E-1,8.960487366E0,5.010068893E0,-1.165092438E-1,1.026667904E1
8.713145310E-1,9.173686981E0,4.998091221E0,-2.003517449E-1,1.044880804E1
8.763511460E-1,9.319811821E0,4.907062054E0,-3.105447590E-1,1.053729512E1
8.813877600E-1,9.449169159E0,4.873525143E0,-5.476992726E-1,1.064603305E1
8.864210940E-1,9.600085258E0,4.830406189E0,-7.537122369E-1,1.077323271E1
8.914577600E-1,9.739025116E0,4.830406189E0,-1.002844214E0,1.091728587E1
8.964943230E-1,9.882754326E0,4.847174644E0,-1.196879745E0,1.107232840E1
9.015309370E-1,1.004085732E1,4.897480011E0,-1.364564776E0,1.125460631E1
9.065675000E-1,1.011511803E1,5.024441719E0,-1.448407292E0,1.138676912E1
9.116041670E-1,1.002648449E1,5.201708794E0,-1.527458787E0,1.139830233E1
9.166203120E-1,9.875568390E0,5.290342331E0,-1.596928239E0,1.131656983E1
9.216569270E-1,9.710278511E0,5.347834110E0,-1.649629235E0,1.120759185E1
9.266935420E-1,9.516242981E0,5.414908409E0,-1.642442703E0,1.107148281E1
9.317301560E-1,9.362931252E0,5.410117149E0,-1.563391209E0,1.092602587E1
9.367667710E-1,9.231178284E0,5.436467648E0,-1.529854298E0,1.082175065E1
9.418033850E-1,9.140150070E0,5.460422516E0,-1.462780237E0,1.074701277E1
9.468661980E-1,9.085053444E0,5.553847313E0,-1.436429739E0,1.074461477E1
9.519028120E-1,8.994024277E0,5.592175484E0,-1.402892709E0,1.068330507E1
9.569394270E-1,8.931740761E0,5.623316765E0,-1.345400810E0,1.063991484E1
9.619760420E-1,8.895808220E0,5.719136715E0,-1.213648200E0,1.064503972E1
9.670126040E-1,8.723332405E0,5.889217377E0,-1.048358679E0,1.057726172E1
9.720492190E-1,8.433477402E0,6.008992195E0,-8.686962724E-1,1.039163902E1
9.770524480E-1,8.143621445E0,6.102416515E0,-8.064132333E-1,1.020824960E1
9.820890620E-1,7.913654327E0,6.188654900E0,-8.255772591E-1,1.008002739E1
9.871256770E-1,7.681290627E0,6.231773853E0,-8.567187786E-1,9.928302882E0
9.921622920E-1,7.520792007E0,6.258124352E0,-8.782782555E-1,9.823329655E0
9.971988540E-1,7.472882271E0,6.250937939E0,-9.645162821E-1,9.790224012E0
1.002235469E0,7.429763317E0,6.291661263E0,-1.062731743E0,9.793660355E0
1.007274271E0,7.408203602E0,6.303638935E0,-1.199275255E0,9.800796170E0
1.012310833E0,7.420181274E0,6.346757889E0,-1.184902191E0,9.835874087E0
1.017347396E0,7.468091011E0,6.476114750E0,-1.165738225E0,9.953461268E0
1.022383958E0,7.523187637E0,6.679732323E0,-1.084291220E0,1.011893589E1
1.027420521E0,7.348316193E0,6.897722721E0,-1.014821768E0,1.012947150E1
1.032457083E0,7.048878670E0,7.103735924E0,-8.854647875E-1,1.004658163E1
1.037509271E0,6.830888271E0,7.281002522E0,-7.321527600E-1,1.001049849E1
1.042545885E0,6.663203239E0,7.412755013E0,-5.285352468E-1,9.981310725E0
1.047582396E0,6.567383289E0,7.592417717E0,-2.362842411E-1,1.004147202E1
1.052618958E0,6.351788044E0,7.781662464E0,3.201176226E-2,1.004492443E1
1.057655521E0,6.037977695E0,7.927787781E0,2.667707503E-1,9.968859533E0
1.062692083E0,5.712189674E0,8.064331055E0,3.793592453E-1,9.889714843E0
1.067718333E0,5.515758514E0,8.097867966E0,4.584107399E-1,9.808628752E0
1.072754948E0,5.400774479E0,8.030794144E0,3.913367391E-1,9.685822835E0
1.077791510E0,5.280999660E0,7.982884407E0,2.188607603E-1,9.574095305E0
1.082828073E0,5.209134579E0,7.973302364E0,-6.620374322E-2,9.524338118E0
1.087864583E0,5.192366123E0,8.033189774E0,-3.464772403E-1,9.571460201E0
1.092901146E0,5.209134579E0,8.184105873E0,-6.483102441E-1,9.722909964E0
1.097966979E0,5.060613632E0,8.378141403E0,-9.261882305E-1,9.831626943E0
1.103003542E0,4.787526608E0,8.536244392E0,-1.223230243E0,9.863273877E0
1.108040104E0,4.538394451E0,8.651228905E0,-1.412474751E0,9.870960981E0
1.113076614E0,4.224584103E0,8.703929901E0,-1.623278737E0,9.810226319E0
1.118113177E0,3.973056555E0,8.737466812E0,-1.872410774E0,9.779285597E0
1.123149739E0,3.790998697E0,8.699138641E0,-2.174243689E0,9.735194905E0
1.128185208E0,3.623313665E0,8.665601730E0,-2.432957649E0,9.702594405E0
1.133221771E0,3.402927637E0,8.636855125E0,-2.739581823E0,9.678868298E0
1.138258333E0,3.240033627E0,8.584154129E0,-3.175562859E0,9.709259471E0
1.143294896E0,3.091512680E0,8.572176933E0,-3.539678812E0,9.775939552E0
1.148331406E0,2.978924036E0,8.557804108E0,-3.824743271E0,9.835581358E0
1.153368021E0,2.825612068E0,8.550617218E0,-3.973264217E0,9.842965351E0
1.158449792E0,2.657927036E0,8.531453133E0,-4.088248253E0,9.826700487E0
1.163486354E0,2.495033026E0,8.476357460E0,-4.152926445E0,9.763228137E0
1.168522917E0,2.420772552E0,8.464379311E0,-4.131367207E0,9.724919118E0
1.173559479E0,2.219550610E0,8.459588051E0,-4.112203121E0,9.664432182E0
1.178595989E0,2.013537645E0,8.402096748E0,-4.042733669E0,9.539038690E0
1.183632604E0,1.869807482E0,8.356581688E0,-3.956495762E0,9.433053389E0
1.188644687E0,1.776383042E0,8.255970955E0,-3.973264217E0,9.332921389E0
1.193681302E0,1.797942519E0,8.109845161E0,-4.042733669E0,9.238283464E0
1.198717864E0,1.905740023E0,8.026002884E0,-4.205627441E0,9.259366582E0
1.203754375E0,2.059051991E0,7.978093147E0,-4.306238651E0,9.296954162E0
1.208790937E0,2.111753225E0,7.987675190E0,-4.315820694E0,9.321414318E0
1.213827500E0,2.118939638E0,8.023607254E0,-4.272701740E0,9.334032286E0
1.218848542E0,2.003955603E0,8.109845161E0,-4.078666210E0,9.296286606E0
1.223885104E0,1.783569455E0,8.229620934E0,-3.738505363E0,9.213262346E0
1.228921667E0,1.503296018E0,8.356581688E0,-3.388762236E0,9.141994635E0
1.233958229E0,1.302073956E0,8.469170570E0,-3.048601151E0,9.094845557E0
1.238994792E0,1.091270089E0,8.529058456E0,-2.732395172E0,9.022288620E0
1.244031354E0,9.930545092E-1,8.541035652E0,-2.485658646E0,8.950639428E0
1.249032812E0,1.017009497E0,8.529058456E0,-2.224549294E0,8.872866844E0
1.254069375E0,9.858679771E-1,8.588945389E0,-1.953857780E0,8.863378520E0
1.259105937E0,9.714950323E-1,8.588945389E0,-1.733471751E0,8.815821561E0
1.264142500E0,1.062524080E0,8.531453133E0,-1.551413774E0,8.736219702E0
1.269179062E0,1.153553009E0,8.481147766E0,-1.479548812E0,8.686173879E0
1.274215573E0,1.311655998E0,8.505103111E0,-1.594532728E0,8.752128599E0
1.279280208E0,1.429035544E0,8.564990044E0,-1.834082723E0,8.874967970E0
1.284316771E0,1.560788035E0,8.615296364E0,-2.119147301E0,9.008339248E0
1.289353333E0,1.773987532E0,8.653623581E0,-2.267668247E0,9.120008340E0
1.294389896E0,1.994373560E0,8.737466812E0,-2.234131336E0,9.236460091E0
1.299426458E0,2.047074556E0,8.900360107E0,-2.219758272E0,9.398630276E0
1.304463021E0,2.011142015E0,9.029717445E0,-2.183825731E0,9.505239827E0
1.309545521E0,1.924903989E0,9.147096634E0,-1.987394810E0,9.556378515E0
1.314582083E0,1.726077557E0,9.336340904E0,-1.637651801E0,9.634755245E0
1.319618646E0,1.366752505E0,9.436952591E0,-1.189693213E0,9.609342150E0
1.324655208E0,9.930545092E-1,9.551936150E0,-7.153842449E-1,9.630026795E0
1.329691719E0,6.552889943E-1,9.717226028E0,-2.865897417E-1,9.743511638E0
1.334728333E0,4.804175198E-1,9.884910583E0,3.440725803E-2,9.896637919E0
1.339727396E0,4.037615359E-1,9.961566925E0,2.332337648E-1,9.972473964E0
1.344763958E0,3.965750337E-1,1.005020046E1,3.554042578E-1,1.006429895E1
1.349800521E0,4.229255319E-1,1.003582764E1,3.074942231E-1,1.004944053E1
1.354837083E0,4.828130305E-1,1.000229073E1,1.589732617E-1,1.001519848E1
1.359873594E0,6.097745299E-1,1.002145386E1,5.661263596E-3,1.003998976E1
1.364910156E0,8.732795119E-1,1.001426792E1,-8.297224343E-2,1.005261476E1
1.369943021E0,1.122411489E0,1.015320683E1,1.524326112E-2,1.021506969E1
1.374979583E0,1.064919591E0,1.041192055E1,2.164652497E-1,1.046847651E1
1.380016146E0,8.109965324E-1,1.056523323E1,4.871567488E-1,1.060750632E1
1.385052708E0,5.522825122E-1,1.057002354E1,6.907742620E-1,1.060695916E1
1.390089219E0,2.791955173E-1,1.048378563E1,8.321087360E-1,1.052046179E1
1.395125781E0,3.964552656E-2,1.034963799E1,9.135557413E-1,1.038995487E1
1.400131042E0,-1.376214772E-1,1.022267628E1,8.201311827E-1,1.025644505E1
1.405167656E0,-3.005154729E-1,1.013404274E1,6.883787513E-1,1.016184024E1
1.410204167E0,-4.250814617E-1,1.011008739E1,5.302757621E-1,1.013290451E1
1.415240729E0,-5.017374754E-1,1.000708103E1,2.260472625E-1,1.002220079E1
1.420277292E0,-4.466409385E-1,9.872933388E0,-4.943524301E-2,9.883154641E0
1.425313854E0,-2.981199622E-1,9.815441132E0,-1.716057509E-1,9.821466726E0
1.430404792E0,-1.807404906E-1,9.899283409E0,-2.099337429E-1,9.903158653E0
1.435441354E0,-2.382324785E-1,9.925634384E0,-2.314932495E-1,9.931191357E0
1.440477917E0,-3.148884773E-1,9.801068306E0,-3.321042359E-1,9.811747445E0
1.445514479E0,-3.915444911E-1,9.678897858E0,-3.680367470E-1,9.693803272E0
1.450550989E0,-4.418499768E-1,9.554331779E0,-2.554482520E-1,9.567953855E0
1.455587604E0,-4.274769723E-1,9.496839523E0,5.661263596E-3,9.506457255E0
1.460583698E0,-3.699849546E-1,9.547144890E0,5.087162256E-1,9.567844930E0
1.465620312E0,-4.346634448E-1,9.659733772E0,1.114777684E0,9.733556295E0
1.470656823E0,-6.023485065E-1,9.784299850E0,1.641787767E0,9.939356838E0
1.475693437E0,-7.436829805E-1,9.774717331E0,1.907688141E0,9.986863237E0
1.480729948E0,-7.580559850E-1,9.693270683E0,2.142447233E0,9.956114983E0
1.485766510E0,-6.885864735E-1,9.674106598E0,2.250244856E0,9.956208702E0
1.490822344E0,-6.454675198E-1,9.748367310E0,2.434698343E0,1.006851774E1
1.495858906E0,-6.909819841E-1,9.865746498E0,2.638315678E0,1.023577646E1
1.500895469E0,-7.820109725E-1,9.868142128E0,2.676643848E0,1.025456935E1
1.505932031E0,-8.107569814E-1,9.789091110E0,2.544891357E0,1.014692582E1
1.510968594E0,-7.293099761E-1,9.623801231E0,2.290968180E0,9.919575514E0
1.516005156E0,-6.430720091E-1,9.444138527E0,2.001112700E0,9.675212978E0
1.521043750E0,-6.023485065E-1,9.276453972E0,1.617832780E0,9.435719629E0
1.526080312E0,-5.328789949E-1,9.190216064E0,1.167478800E0,9.279387808E0
1.531116875E0,-3.388434649E-1,9.096791267E0,8.512727022E-1,9.142816386E0
1.536153385E0,-1.495989710E-1,9.058463097E0,7.602437139E-1,9.091540245E0
1.541189948E0,-1.545098051E-2,9.036903381E0,7.770122290E-1,9.070259614E0
1.546226562E0,1.019285247E-1,9.068045616E0,9.375107288E-1,9.116949440E0
1.551263177E0,5.641402304E-2,9.149492264E0,1.349536777E0,9.248656159E0
1.556299739E0,-1.831359714E-1,9.269267082E0,1.835823298E0,9.451089789E0
1.561336302E0,-4.442454875E-1,9.341132164E0,2.310132265E0,9.632798931E0
1.566372864E0,-8.299210072E-1,9.314782143E0,2.870679140E0,9.782368525E0
1.571409375E0,-1.306625485E0,9.269267082E0,3.361756802E0,9.946255134E0
1.576445989E0,-1.675532460E0,9.218961716E0,3.768991709E0,1.009960210E1
1.581486927E0,-1.962992549E0,9.156679153E0,4.073220253E0,1.021221015E1
1.586523489E0,-2.133072853E0,9.087209702E0,4.355889320E0,1.030054133E1
1.591560052E0,-2.157027960E0,9.017739296E0,4.676886082E0,1.038487627E1
1.596596562E0,-2.200146914E0,9.120746613E0,4.926018238E0,1.059690148E1
1.601633125E0,-2.307944298E0,9.257289886E0,5.093703270E0,1.081525940E1
1.606669739E0,-2.358249903E0,9.446534157E0,5.318880081E0,1.109454080E1
1.611757917E0,-2.394182444E0,9.640569687E0,5.630295277E0,1.141809609E1
1.616794479E0,-2.437301397E0,9.793881416E0,5.872240543E0,1.167663309E1
1.621831042E0,-2.456465483E0,9.844187737E0,6.071067333E0,1.182370980E1
1.626867604E0,-2.490002394E0,9.841792107E0,6.083044529E0,1.183488126E1
1.631904114E0,-2.513957262E0,9.724411964E0,5.982433796E0,1.169075204E1
1.636940729E0,-2.607381821E0,9.621405602E0,5.769234180E0,1.151754960E1
1.641924479E0,-2.767880440E0,9.506422043E0,5.419491291E0,1.128734282E1
1.646961042E0,-2.947542906E0,9.439348221E0,4.949973106E0,1.105855044E1
1.651997604E0,-3.091272831E0,9.410601616E0,4.446918011E0,1.085773781E1
1.657034167E0,-3.170324326E0,9.412997246E0,4.061242580E0,1.073075788E1
1.662070729E0,-3.261353493E0,9.429765701E0,3.742641211E0,1.065665384E1
1.667107292E0,-3.273330927E0,9.496839523E0,3.438412666E0,1.061731312E1
1.672141771E0,-3.225420952E0,9.525586128E0,3.239586353E0,1.056574896E1
1.677178333E0,-3.120018959E0,9.547144890E0,3.093460798E0,1.050961434E1
1.682214896E0,-3.036176443E0,9.496839523E0,2.988058805E0,1.040849767E1
1.687251406E0,-3.024198771E0,9.393833160E0,2.961708307E0,1.030347494E1
1.692287969E0,-3.012221336E0,9.403415680E0,3.081483126E0,1.034375377E1
1.697324531E0,-3.057735920E0,9.436952591E0,3.261145830E0,1.044226485E1
1.702366146E0,-3.182301760E0,9.458511353E0,3.512673140E0,1.057966701E1
1.707402760E0,-3.342800379E0,9.410601616E0,3.807319641E0,1.068781643E1
1.712439271E0,-3.395501375E0,9.333946228E0,4.087593079E0,1.074059584E1
1.717475885E0,-3.455388784E0,9.242917061E0,4.159458160E0,1.070851622E1
1.722512396E0,-3.553604364E0,9.159073830E0,4.245696068E0,1.070246105E1
1.727548958E0,-3.647028923E0,9.080022812E0,4.245696068E0,1.066646939E1
1.732561719E0,-3.824295759E0,9.008157730E0,4.202577114E0,1.065053042E1
1.737598333E0,-4.094987392E0,8.921919823E0,4.018123627E0,1.060730374E1
1.742634844E0,-4.466289997E0,8.809330940E0,3.709104300E0,1.055033235E1
1.747671458E0,-4.847174168E0,8.670392036E0,3.333010674E0,1.047758348E1
1.752707969E0,-5.146611691E0,8.505103111E0,2.937753201E0,1.036603997E1
1.757744531E0,-5.446049213E0,8.442819595E0,2.736531258E0,1.041293705E1
1.762804635E0,-5.699972153E0,8.421260834E0,2.547286749E0,1.048312865E1
1.767841198E0,-5.850888729E0,8.279926300E0,2.384392738E0,1.041515277E1
1.772877760E0,-5.939522266E0,8.200874329E0,2.283781767E0,1.038016973E1
1.777914323E0,-5.989828110E0,8.179314613E0,2.180775166E0,1.036990881E1
1.782950833E0,-5.982641220E0,8.169733047E0,2.027463198E0,1.032701027E1
1.787987448E0,-5.917963028E0,8.124218941E0,1.838218689E0,1.021784066E1
1.793022396E0,-5.838911533E0,8.042771339E0,1.668138266E0,1.007778468E1
1.798058958E0,-5.788605690E0,7.963720322E0,1.541176796E0,9.965140396E0
1.803095521E0,-5.685599327E0,7.930183411E0,1.433379292E0,9.862475593E0
1.808132083E0,-5.640084743E0,7.906228065E0,1.378282785E0,9.809111151E0
1.813168594E0,-5.678412914E0,7.877482414E0,1.299231291E0,9.797300871E0
1.818205156E0,-5.783814907E0,7.798430920E0,1.160292268E0,9.778257403E0
1.823253281E0,-5.898798943E0,7.743334293E0,1.095613718E0,9.795683966E0
1.828289844E0,-6.059297562E0,7.733752251E0,9.590702057E-1,9.871465265E0
1.833326406E0,-6.215004921E0,7.716983795E0,8.464818001E-1,9.944579252E0
1.838362969E0,-6.289265156E0,7.688237667E0,7.841987610E-1,9.963875868E0
1.843399479E0,-6.226982594E0,7.637932301E0,7.362887263E-1,9.882076864E0
1.848436094E0,-6.052110672E0,7.659491539E0,6.955652237E-1,9.786708599E0
1.853475833E0,-5.817351818E0,7.681051254E0,6.955652237E-1,9.660431746E0
1.858512396E0,-5.601757050E0,7.728961468E0,6.859832406E-1,9.570114964E0
1.863548958E0,-5.453236103E0,7.798430920E0,7.674302459E-1,9.546845447E0
1.868585469E0,-5.390953064E0,7.865504742E0,8.177357912E-1,9.570644263E0
1.873622031E0,-5.381371021E0,7.884668827E0,9.087647200E-1,9.589213205E0
1.878658646E0,-5.484377384E0,7.906228065E0,9.111602306E-1,9.665249634E0
1.883687187E0,-5.625711918E0,7.863109112E0,9.183467627E-1,9.711873159E0
1.888723750E0,-5.767046452E0,7.786453247E0,8.896007538E-1,9.730316976E0
1.893760312E0,-5.939522266E0,7.738543034E0,9.015781879E-1,9.796724772E0
1.898796823E0,-6.047319889E0,7.597208977E0,8.704367876E-1,9.749119051E0
1.903833385E0,-6.159908295E0,7.501388550E0,8.129447699E-1,9.740440420E0
1.908870000E0,-6.119184971E0,7.443896770E0,7.219157219E-1,9.663187163E0
1.913899896E0,-6.076066017E0,7.441501141E0,6.811922193E-1,9.631123523E0
1.918936458E0,-6.107207298E0,7.427128315E0,6.572372317E-1,9.638058766E0
1.923973021E0,-6.174281597E0,7.472642899E0,6.524462700E-1,9.715339997E0
1.929009583E0,-6.296452045E0,7.381613731E0,6.093272567E-1,9.721358411E0
1.934046094E0,-6.421017647E0,7.257047653E0,5.518352389E-1,9.705603041E0
1.939082708E0,-6.533606529E0,7.168414116E0,4.536197186E-1,9.709786098E0
1.944133437E0,-6.706082344E0,7.072594166E0,4.344557524E-1,9.756120153E0
1.949169948E0,-6.861789703E0,6.943237305E0,3.649862409E-1,9.768619000E0
1.954206562E0,-6.986355782E0,6.837835312E0,3.170762658E-1,9.780884225E0
1.959243073E0,-7.110921860E0,6.665359020E0,1.565777510E-1,9.747652905E0
1.964279635E0,-7.161227226E0,6.492883205E0,-8.711741306E-3,9.666477311E0
1.969316198E0,-7.209137440E0,6.339571476E0,-1.308822483E-1,9.600987412E0
1.974341719E0,-7.249860764E0,6.207818985E0,-1.907697469E-1,9.546407216E0
1.979378281E0,-7.312143803E0,6.133558273E0,-2.722167373E-1,9.547883851E0
1.984414844E0,-7.405568600E0,6.071275234E0,-3.656412363E-1,9.583137418E0
1.989451354E0,-7.482224464E0,6.013783455E0,-4.926027656E-1,9.612072194E0
1.994487969E0,-7.534925461E0,5.992223740E0,-5.836317539E-1,9.644815865E0
1.999524479E0,-7.630745411E0,5.913172245E0,-6.243552566E-1,9.673866911E0
2.004544479E0,-7.724169731E0,5.831725121E0,-6.363327503E-1,9.699316228E0
2.009581094E0,-7.858317852E0,5.807770252E0,-7.034067512E-1,9.796843156E0
2.014617604E0,-7.934974194E0,5.750278473E0,-8.950467706E-1,9.840255418E0
2.019654167E0,-8.018816948E0,5.695181847E0,-1.053149700E0,9.891695800E0
2.024690729E0,-8.179315567E0,5.599361897E0,-1.146574259E0,9.978411162E0
2.029727292E0,-8.347000122E0,5.522705555E0,-1.235207796E0,1.008456375E1
2.034780364E0,-8.466774940E0,5.405326366E0,-1.429243207E0,1.014625878E1
2.039816979E0,-8.567386627E0,5.295133114E0,-1.577764273E0,1.019450285E1
2.044853594E0,-8.658415794E0,5.170567036E0,-1.750240207E0,1.023553947E1
2.049890208E0,-8.667997360E0,5.041210175E0,-1.920320749E0,1.020958422E1
2.054926771E0,-8.634460449E0,4.878316402E0,-2.078423738E0,1.013270563E1
2.059963385E0,-8.610505104E0,4.753750324E0,-2.253295183E0,1.009040532E1
2.065008854E0,-8.581759453E0,4.732190609E0,-2.382652283E0,1.008549727E1
2.070045469E0,-8.569782257E0,4.705840111E0,-2.531173229E0,1.009915526E1
2.075082083E0,-8.610505104E0,4.669907570E0,-2.612620354E0,1.013778181E1
2.080118698E0,-8.632064819E0,4.679489613E0,-2.765932322E0,1.020100719E1
2.085155260E0,-8.608109474E0,4.629184246E0,-2.902475834E0,1.019574722E1
2.090191875E0,-8.605714798E0,4.610020161E0,-3.022250652E0,1.021981468E1
2.095224167E0,-8.593736649E0,4.586065292E0,-3.137234688E0,1.023359888E1
2.100260781E0,-8.636856079E0,4.554923534E0,-3.158794165E0,1.026258213E1
2.105297396E0,-8.773399353E0,4.564505577E0,-3.180353642E0,1.038854642E1
2.110334010E0,-8.979412079E0,4.542946339E0,-3.185144663E0,1.055525221E1
2.115370573E0,-9.171051979E0,4.547737122E0,-3.192331314E0,1.072292341E1
2.120407187E0,-9.369878769E0,4.562109947E0,-3.113279819E0,1.087657973E1
2.125463021E0,-9.508817673E0,4.602833748E0,-2.919244289E0,1.096018610E1
2.130499635E0,-9.599846840E0,4.631579399E0,-2.636575222E0,1.097998707E1
2.135536250E0,-9.702853203E0,4.677093983E0,-2.401816368E0,1.103581851E1
2.140572864E0,-9.808255196E0,4.665116787E0,-2.236526728E0,1.108905931E1
2.145609427E0,-9.959172249E0,4.653139114E0,-2.059259653E0,1.118379926E1
2.150646042E0,-1.014362526E1,4.672303200E0,-1.886783719E0,1.132623077E1
2.155639271E0,-1.033766079E1,4.681885242E0,-1.685561776E0,1.147294202E1
2.160675937E0,-1.043587589E1,4.679489613E0,-1.501108289E0,1.153509665E1
2.165712500E0,-1.050534630E1,4.686676025E0,-1.431638718E0,1.159210173E1
2.170749114E0,-1.068261242E1,4.669907570E0,-1.376542211E0,1.173972373E1
2.175785729E0,-1.090060329E1,4.607624531E0,-1.218439221E0,1.189697231E1
2.180822344E0,-1.119764519E1,4.581274033E0,-1.146574259E0,1.215277590E1
2.185883125E0,-1.148510551E1,4.528573036E0,-1.163342714E0,1.240036244E1
2.190919739E0,-1.189713097E1,4.466289997E0,-1.275931239E0,1.277174507E1
2.195956354E0,-1.234988117E1,4.423171043E0,-1.455593705E0,1.319858932E1
2.200992969E0,-1.270920563E1,4.392029762E0,-1.584950805E0,1.353978959E1
2.206029583E0,-1.300864315E1,4.315373421E0,-1.711912274E0,1.381223689E1
2.211066146E0,-1.326735783E1,4.298604965E0,-1.764613271E0,1.405754774E1
2.216099792E0,-1.342785549E1,4.267463684E0,-1.822105289E0,1.420699184E1
2.221136406E0,-1.347097492E1,4.279441357E0,-1.886783719E0,1.425975934E1
2.226173021E0,-1.333682728E1,4.243508816E0,-2.018536091E0,1.414046735E1
2.231209635E0,-1.292000961E1,4.238717556E0,-2.162266254E0,1.376839752E1
2.236246250E0,-1.217021847E1,4.217158318E0,-2.274854660E0,1.307951091E1
2.241282812E0,-1.131262970E1,4.334537506E0,-2.315578222E0,1.233392511E1
2.246287083E0,-1.043108559E1,4.444730759E0,-2.296414375E0,1.156878114E1
2.251323750E0,-9.686084747E0,4.574087620E0,-2.140706778E0,1.092360475E1
2.256360312E0,-9.020135880E0,4.835197449E0,-2.035304785E0,1.043477126E1
2.261396927E0,-8.299090385E0,5.079538345E0,-1.834082723E0,9.901538793E0
2.266433542E0,-7.436709881E0,5.307110786E0,-1.644838214E0,9.283079850E0
2.271470156E0,-6.665359020E0,5.589779854E0,-1.462780237E0,8.821132337E0
2.276519219E0,-6.008991718E0,5.826934338E0,-1.211252809E0,8.457439247E0
2.281555885E0,-5.374184608E0,6.035342693E0,-1.033985734E0,8.147168105E0
2.286592500E0,-4.835196972E0,6.272497177E0,-9.022332430E-1,7.971033523E0
2.291629062E0,-4.339328289E0,6.550375462E0,-7.800627351E-1,7.895928480E0
2.296665677E0,-3.946466446E0,6.708478451E0,-6.866382360E-1,7.813434111E0
2.301702239E0,-3.579954863E0,6.854603767E0,-6.866382360E-1,7.763577893E0
2.306730469E0,-3.227816343E0,6.960005760E0,-7.513167858E-1,7.708758359E0
2.311767135E0,-2.808603764E0,7.082176208E0,-8.878602386E-1,7.670317513E0
2.316803698E0,-2.389391422E0,7.257047653E0,-9.118152857E-1,7.694500577E0
2.321840312E0,-2.097140312E0,7.439105988E0,-8.495322466E-1,7.775602898E0
2.326876927E0,-1.862381458E0,7.623559475E0,-7.728762627E-1,7.885712490E0
2.331913542E0,-1.630017996E0,7.853527069E0,-5.956092477E-1,8.042984301E0
2.336980781E0,-1.550966501E0,8.028398514E0,-3.728277385E-1,8.185333243E0
2.342017396E0,-1.598876476E0,8.181710243E0,-1.811877489E-1,8.338442150E0
2.347054010E0,-1.608458519E0,8.354186058E0,-6.141273677E-2,8.507839621E0
2.352090573E0,-1.534198046E0,8.454797745E0,5.357126892E-2,8.593034297E0
2.357127239E0,-1.452751040E0,8.526662827E0,2.476067692E-1,8.653078854E0
2.362163802E0,-1.447960019E0,8.612900734E0,3.841502666E-1,8.742209028E0
2.367204896E0,-1.435982466E0,8.747048378E0,5.398577452E-1,8.880560081E0
2.372241510E0,-1.543779969E0,8.845263481E0,6.644237638E-1,9.003521621E0
2.377278125E0,-1.874359012E0,8.979412079E0,8.872052431E-1,9.215758033E0
2.382314687E0,-2.530725956E0,9.048881531E0,1.193829298E0,9.471645011E0
2.387351302E0,-3.321240902E0,9.029717445E0,1.373491764E0,9.718689104E0
2.392387917E0,-3.941675186E0,8.938688278E0,1.284858227E0,9.853314776E0
2.397438177E0,-4.262672424E0,8.792562485E0,1.040517211E0,9.826607111E0
2.402474792E0,-4.454312325E0,8.703929901E0,7.818032503E-1,9.808695649E0
2.407511406E0,-4.633975029E0,8.723093987E0,7.099382281E-1,9.903035169E0
2.412548021E0,-4.717817307E0,8.826099396E0,6.093272567E-1,1.002642062E1
2.417584583E0,-4.578878403E0,8.914732933E0,3.721727133E-1,1.002881365E1
2.422621198E0,-4.315373421E0,8.981807709E0,1.781372577E-1,9.966295719E0
2.427615417E0,-3.829086781E0,8.981807709E0,8.056758903E-3,9.763956176E0
2.432652031E0,-3.311658859E0,8.991389275E0,-2.554482520E-1,9.585270956E0
2.437688646E0,-2.595404387E0,8.953061104E0,-5.381172299E-1,9.337183580E0
2.442725260E0,-1.840821981E0,8.835681915E0,-7.680852413E-1,9.058027126E0
2.447761875E0,-9.281364679E-1,8.672787666E0,-9.956577420E-1,8.778953101E0
2.452798489E0,-4.898798093E-2,8.584154129E0,-1.216043711E0,8.669997938E0
2.457859583E0,7.367359996E-1,8.564990044E0,-1.354982734E0,8.702747416E0
2.462896198E0,1.551205993E0,8.579363823E0,-1.477153301E0,8.842720481E0
2.467932812E0,2.344116688E0,8.651228905E0,-1.647233725E0,9.113288295E0
2.472969427E0,3.089117050E0,8.699138641E0,-1.745449305E0,9.394905562E0
2.478006042E0,3.802976131E0,8.725488663E0,-1.889179230E0,9.703905297E0
2.483042604E0,4.492880344E0,8.799749374E0,-2.011349678E0,1.008300999E1
2.488080260E0,5.015099049E0,8.869218826E0,-2.135915756E0,1.041039851E1
2.493116875E0,5.331305027E0,8.859636307E0,-2.294018745E0,1.059143478E1
2.498153489E0,5.510967731E0,8.802145004E0,-2.440144300E0,1.066784075E1
2.503190104E0,5.537318230E0,8.687161446E0,-2.626993179E0,1.063154553E1
2.508226667E0,5.314536572E0,8.624877930E0,-2.789887190E0,1.050791553E1
2.513263281E0,4.936047554E0,8.612900734E0,-3.005482197E0,1.037205610E1
2.518300521E0,4.356336594E0,8.608109474E0,-3.268987179E0,1.018643679E1
2.523337135E0,3.656850576E0,8.557804108E0,-3.508537292E0,9.945773033E0
2.528373698E0,2.887895107E0,8.512289047E0,-3.733714342E0,9.733428264E0
2.533410364E0,2.152476549E0,8.473961830E0,-3.901399374E0,9.574032665E0
2.538446927E0,1.441012979E0,8.529058456E0,-4.057106495E0,9.554133643E0
2.543483542E0,7.127810121E-1,8.608109474E0,-4.169694901E0,9.591348240E0
2.548529323E0,-3.701047227E-2,8.696743011E0,-4.306238651E0,9.704555637E0
2.553565937E0,-7.484740019E-1,8.775794983E0,-4.404454231E0,9.847538169E0
2.558602500E0,-1.323393941E0,8.761421204E0,-4.435595989E0,9.909005238E0
2.563639114E0,-1.644390941E0,8.790166855E0,-4.421222687E0,9.975884169E0
2.568675729E0,-1.780934453E0,8.792562485E0,-4.311029911E0,9.953183484E0
2.573712344E0,-1.941433072E0,8.766212463E0,-4.100225449E0,9.870536564E0
2.578733281E0,-2.049230337E0,8.708720207E0,-3.879839659E0,9.751631064E0
2.583769896E0,-2.092349291E0,8.533848763E0,-3.757669210E0,9.556389389E0
2.588806510E0,-2.056416988E0,8.378141403E0,-3.731318712E0,9.399193770E0
2.593843073E0,-2.044439316E0,8.239202499E0,-3.767251253E0,9.287430858E0
2.598879739E0,-2.065998793E0,8.129009247E0,-3.779228687E0,9.199549544E0
2.603916302E0,-2.245661259E0,8.105054855E0,-3.927749872E0,9.282355722E0
2.608968906E0,-2.492397785E0,8.064331055E0,-4.119389534E0,9.392276200E0
2.614005521E0,-2.719970465E0,7.963720322E0,-4.299052238E0,9.449916975E0
2.619042135E0,-2.854118347E0,7.848736286E0,-4.437991142E0,9.457505919E0
2.624078698E0,-2.818185806E0,7.728961468E0,-4.435595989E0,9.346310951E0
2.629115364E0,-2.358249903E0,7.285793781E0,-4.579325676E0,8.922687783E0
2.634151927E0,-2.209728956E0,6.849812984E0,-4.461946487E0,8.468282378E0
2.639144739E0,-2.092349291E0,6.658172607E0,-4.198441029E0,8.144697361E0
2.644181354E0,-1.848008513E0,6.483301163E0,-4.093039036E0,7.886779950E0
2.649217969E0,-1.524616003E0,6.385085583E0,-3.968473196E0,7.670889868E0
2.654254531E0,-1.122171998E0,6.389876842E0,-3.795997143E0,7.516607637E0
2.659291146E0,-6.909819841E-1,6.401854038E0,-3.503746271E0,7.330581775E0
2.664327760E0,-3.268659711E-1,6.514442921E0,-3.048601151E0,7.199915062E0
2.669384583E0,-5.868974607E-3,6.742015362E0,-2.626993179E0,7.235737609E0
2.674421198E0,3.127325177E-1,6.960005760E0,-2.301205158E0,7.337235650E0
2.679457812E0,5.474914908E-1,7.137272835E0,-2.032909155E0,7.441312390E0
2.684494427E0,7.630864978E-1,7.247465611E0,-1.745449305E0,7.493640774E0
2.689531042E0,8.613020182E-1,7.340890408E0,-1.549018264E0,7.551819034E0
2.694567656E0,8.565109968E-1,7.252256870E0,-1.352587223E0,7.426865624E0
2.699601146E0,7.319449782E-1,7.048639297E0,-1.122619271E0,7.174909994E0
2.704637760E0,6.888260245E-1,6.768365860E0,-1.012426257E0,6.878245753E0
2.709674323E0,7.774595022E-1,6.464137077E0,-9.142107368E-1,6.574594490E0
2.714710937E0,9.044210315E-1,6.164699554E0,-8.663007617E-1,6.290625963E0
2.719747552E0,1.105643034E0,6.016178608E0,-8.016222715E-1,6.169234136E0
2.724784167E0,1.282909989E0,5.953895569E0,-7.249662280E-1,6.133539477E0
2.729812135E0,1.333215475E0,5.889217377E0,-6.339372396E-1,6.071426623E0
2.734848802E0,1.381125450E0,5.898799419E0,-4.782297611E-1,6.077174163E0
2.739885417E0,1.335610986E0,5.944313526E0,-2.003517449E-1,6.095806823E0
2.744921979E0,1.172716975E0,6.016178608E0,1.709507555E-1,6.131793727E0
2.749958594E0,9.451445341E-1,6.092834949E0,3.889412284E-1,6.177961734E0
2.754995208E0,9.978455305E-1,5.908381462E0,5.494397283E-1,6.017187983E0
2.760029219E0,1.282909989E0,5.429281235E0,7.219157219E-1,5.625310220E0
2.765065833E0,1.560788035E0,4.820824146E0,9.878162146E-1,5.162575483E0
2.770102448E0,1.838665962E0,4.238717556E0,1.268089771E0,4.791186775E0
2.775139062E0,2.169245005E0,3.819504976E0,1.464520693E0,4.630233581E0
2.780175677E0,2.509406090E0,3.567977428E0,1.708861709E0,4.684846870E0
2.785212239E0,2.784888506E0,3.433829546E0,2.051418304E0,4.873921050E0
2.790247760E0,3.163377523E0,3.438620567E0,2.516145229E0,5.306793342E0
2.795284323E0,3.573008060E0,3.476948500E0,3.067110300E0,5.853436859E0
2.800320937E0,3.829326630E0,3.570373058E0,3.558187723E0,6.330245342E0
2.805357552E0,3.997011662E0,3.618283033E0,4.046869755E0,6.741307673E0
2.810394167E0,4.032944202E0,3.709311962E0,4.470873356E0,7.071940521E0
2.815430781E0,3.870050192E0,3.692543507E0,4.902063370E0,7.255507654E0
2.820514792E0,3.575403690E0,3.594327927E0,5.309298038E0,7.341072841E0
2.825551406E0,3.285548210E0,3.417061090E0,5.709346771E0,7.420766409E0
2.830588021E0,2.993297100E0,3.268539906E0,6.003993034E0,7.462647854E0
2.835624635E0,2.780097723E0,3.163137913E0,6.360922813E0,7.628612183E0
2.840661198E0,2.559711695E0,3.014616966E0,6.626823425E0,7.717177471E0
2.845697812E0,2.370467186E0,2.822977066E0,6.823254108E0,7.755327899E0
2.850712448E0,2.315370560E0,2.676851511E0,7.029267311E0,7.870011040E0
2.855749114E0,2.308184147E0,2.588217974E0,7.254444122E0,8.040742867E0
2.860785729E0,2.341721058E0,2.490002632E0,7.386196613E0,8.138775770E0
2.865822292E0,2.329743624E0,2.386996031E0,7.558672905E0,8.261899993E0
2.870858906E0,2.274647236E0,2.341481686E0,7.762290478E0,8.420790343E0
2.875895521E0,2.162058592E0,2.300758123E0,7.867692471E0,8.477533256E0
2.880941458E0,2.023119450E0,2.224102020E0,8.164734840E0,8.700720494E0
2.885978073E0,1.953649998E0,2.192960501E0,8.435425758E0,8.932090002E0
2.891014687E0,1.965627551E0,2.195356131E0,8.708513260E0,9.193556624E0
2.896051302E0,2.023119450E0,2.185774088E0,9.015137672E0,9.494384020E0
2.901087864E0,2.118939638E0,2.145050526E0,9.348112106E0,9.822339177E0
2.906124479E0,2.231528044E0,2.125886679E0,9.654735565E0,1.013474373E1
2.911161094E0,2.358489513E0,2.070790052E0,9.968545914E0,1.045095938E1
2.916197708E0,2.487846613E0,2.020484686E0,1.032547569E1,1.081143781E1
2.921234323E0,2.547734022E0,2.034857512E0,1.053867531E1,1.103155796E1
2.926270885E0,2.466287136E0,2.063603640E0,1.076624775E1,1.123624149E1
2.931307500E0,2.226737022E0,2.133073092E0,1.072552395E1,1.115998309E1
2.936344114E0,2.073425055E0,2.190565109E0,1.088362694E1,1.129384798E1
2.941372031E0,2.039888144E0,2.140259504E0,1.112557316E1,1.151174324E1
2.946408698E0,2.104566574E0,2.094745159E0,1.136033154E1,1.174198835E1
2.951445260E0,1.999164462E0,2.056416988E0,1.154478550E1,1.189569593E1
2.956481875E0,1.735659480E0,1.979761004E0,1.171247005E1,1.200474582E1
2.961518489E0,1.421849012E0,1.891127467E0,1.178433514E1,1.201950799E1
2.966555104E0,1.098456502E0,1.721047044E0,1.190410995E1,1.207793208E1
2.971583125E0,7.319449782E-1,1.471915007E0,1.203107166E1,1.214285644E1
2.976619792E0,3.534560204E-1,1.292252541E0,1.210293674E1,1.217686025E1
2.981656354E0,1.329502091E-2,1.162895560E0,1.221552563E1,1.227076074E1
2.986692969E0,-2.430234700E-1,1.045516014E0,1.233769608E1,1.238430089E1
2.991729583E0,-5.352745056E-1,1.000001550E0,1.241674709E1,1.246844538E1
2.996766198E0,-7.915930152E-1,9.760465622E-1,1.243830681E1,1.250163040E1
3.001862760E0,-1.023956537E0,9.185545444E-1,1.241195583E1,1.248794927E1
3.006899375E0,-1.186850548E0,8.730400801E-1,1.228259945E1,1.237065327E1
3.011935989E0,-1.289857030E0,8.323165774E-1,1.220354748E1,1.229971760E1
3.016972604E0,-1.330580473E0,7.412875891E-1,1.212210083E1,1.221741708E1
3.022009219E0,-1.251528978E0,6.933775544E-1,1.204065418E1,1.212536393E1
3.027045781E0,-1.246737957E0,6.550495625E-1,1.198795319E1,1.207039631E1
3.032002031E0,-1.361721992E0,6.191170812E-1,1.196878910E1,1.206190305E1
3.037038646E0,-1.486287951E0,5.736025572E-1,1.190171432E1,1.200786724E1
3.042075208E0,-1.548570991E0,6.047440767E-1,1.187775993E1,1.199353862E1
3.047111823E0,-1.644390941E0,6.167215705E-1,1.182266331E1,1.195239452E1
3.052148437E0,-1.812075973E0,6.406765580E-1,1.163341904E1,1.179112057E1
3.057185052E0,-2.106722355E0,5.951620340E-1,1.146812916E1,1.167520806E1
3.062223073E0,-2.408555269E0,5.783935785E-1,1.122857952E1,1.149855103E1
3.067259687E0,-2.734343290E0,5.448565483E-1,1.100340176E1,1.135113880E1
3.072296250E0,-3.081690788E0,4.131040573E-1,1.091237354E1,1.134668980E1
3.077332864E0,-3.534440279E0,3.100975752E-1,1.073510647E1,1.130623454E1
3.082369427E0,-4.008749485E0,2.358370274E-1,1.051711559E1,1.125768235E1
3.087405989E0,-4.427961826E0,6.575655192E-2,1.042608643E1,1.132759675E1
3.092446979E0,-4.703444481E0,-9.234643728E-2,1.042608643E1,1.143827767E1
3.097483594E0,-4.813637257E0,-2.480539829E-1,1.053867531E1,1.158862855E1
3.102520156E0,-4.732190609E0,-4.396939874E-1,1.058179379E1,1.160005683E1
3.107556771E0,-4.660325527E0,-5.211408734E-1,1.059137630E1,1.158306841E1
3.112593333E0,-4.610019684E0,-5.067679286E-1,1.061772633E1,1.158642342E1
3.117629948E0,-4.566900730E0,-4.947903752E-1,1.059856319E1,1.155123117E1
3.122677969E0,-4.526177406E0,-3.845974803E-1,1.055304813E1,1.148916977E1
3.127714583E0,-4.492640495E0,-2.911729217E-1,1.047399712E1,1.140057963E1
3.132751198E0,-4.538155079E0,-2.504494786E-1,1.034703541E1,1.130127065E1
3.137787760E0,-4.619601727E0,-2.240989953E-1,1.024402905E1,1.123970958E1
3.142824323E0,-4.674698353E0,-2.528448701E-1,1.019611835E1,1.121951713E1
3.147860937E0,-4.727399349E0,-3.223144412E-1,1.011946297E1,1.117388571E1
3.152889739E0,-4.768122673E0,-4.588579535E-1,1.005478382E1,1.113751418E1
3.157926354E0,-4.820823669E0,-5.403049588E-1,1.000208282E1,1.111638121E1
3.162962969E0,-4.880711555E0,-6.433114409E-1,9.970941544E0,1.112002114E1
3.167999531E0,-4.950181007E0,-7.966234088E-1,9.891890526E0,1.109001348E1
3.173036094E0,-4.971740246E0,-9.667039514E-1,9.841585159E0,1.106840169E1
3.178072708E0,-5.019650459E0,-1.019405007E0,9.690668106E0,1.096107320E1
3.183150417E0,-5.081933498E0,-1.100852013E0,9.515796661E0,1.084381434E1
3.188186979E0,-5.184939861E0,-1.206254005E0,9.441535950E0,1.083887684E1
3.193223594E0,-5.172962189E0,-1.323633432E0,9.304992676E0,1.072820730E1
3.198260156E0,-5.086724281E0,-1.378730059E0,9.151680946E0,1.056072557E1
3.203296771E0,-5.000486374E0,-1.464967966E0,8.921712875E0,1.033189023E1
3.208333333E0,-4.842383385E0,-1.524855375E0,8.732468605E0,1.010098355E1
3.213359271E0,-4.650743484E0,-1.553601503E0,8.521664619E0,9.831676382E0
3.218395885E0,-4.423171043E0,-1.555996895E0,8.284509659E0,9.519383841E0
3.223432396E0,-4.188411713E0,-1.524855375E0,8.104846954E0,9.249676791E0
3.228469010E0,-3.742848873E0,-1.419453382E0,7.975490093E0,8.923688017E0
3.233505573E0,-3.019407988E0,-1.349983931E0,7.793431759E0,8.466218742E0
3.238542187E0,-2.149841309E0,-1.275723457E0,7.513158321E0,7.918133363E0
3.243587239E0,-1.476706028E0,-1.321238041E0,7.242466927E0,7.508638880E0
3.248623802E0,-1.241947055E0,-1.704518080E0,6.916678905E0,7.231062263E0
3.253660417E0,-1.606063008E0,-2.245901108E0,6.586099625E0,7.141443722E0
3.258696927E0,-2.363040924E0,-2.789679527E0,6.416019440E0,7.384550069E0
3.263733542E0,-3.242189407E0,-3.129840374E0,6.468720436E0,7.883656322E0
3.268770104E0,-3.860228300E0,-3.084326029E0,6.360922813E0,8.054549560E0
3.273790104E0,-4.497431278E0,-3.081930399E0,5.726115227E0,7.906552895E0
3.278826719E0,-5.163380146E0,-2.940596104E0,5.510520458E0,8.103914838E0
3.283863281E0,-5.587383747E0,-2.904663563E0,5.225455761E0,8.182989396E0
3.288899844E0,-5.771837234E0,-2.986110449E0,5.005069733E0,8.202541295E0
3.293936458E0,-5.819747448E0,-3.180145979E0,4.870921612E0,8.228527581E0
3.298973021E0,-5.735904694E0,-3.429278135E0,4.803847790E0,8.230279750E0
3.303991562E0,-5.661644459E0,-3.649664164E0,4.954764366E0,8.362054557E0
3.309028177E0,-5.477190971E0,-3.704760313E0,5.153590679E0,8.383577208E0
3.314064739E0,-5.247222900E0,-3.786207438E0,5.151195049E0,8.270642379E0
3.319101302E0,-4.993299961E0,-3.826930761E0,5.057770729E0,8.072142733E0
3.324137917E0,-4.717817307E0,-3.814953566E0,5.103285313E0,7.928126628E0
3.329174479E0,-4.348910332E0,-3.805371523E0,5.191918850E0,7.768519476E0
3.334207292E0,-3.953652859E0,-3.870050192E0,5.371581078E0,7.711195931E0
3.339243854E0,-3.642237902E0,-3.992220640E0,5.520102024E0,7.724975659E0
3.344280417E0,-3.323636293E0,-4.121577263E0,5.448237419E0,7.597186869E0
3.349316979E0,-3.321240902E0,-4.406641960E0,5.369185925E0,7.699174760E0
3.354353594E0,-3.579954863E0,-4.823458672E0,5.304507256E0,8.013714969E0
3.359390208E0,-4.059054852E0,-5.242671013E0,5.270970345E0,8.470221603E0
3.364467552E0,-4.363283157E0,-4.909696579E0,5.038606644E0,8.278340251E0
3.369504167E0,-4.545341492E0,-5.436706543E0,4.681677341E0,8.493292061E0
3.374540729E0,-5.120261192E0,-5.693025112E0,5.129635811E0,9.216331871E0
3.379577292E0,-4.945389748E0,-5.896642685E0,5.014651775E0,9.185532491E0
3.384613854E0,-5.213685989E0,-6.543427944E0,5.318880081E0,9.914103902E0
3.389650469E0,-4.942994595E0,-6.291900158E0,5.381163120E0,9.642516253E0
3.394642917E0,-4.732190609E0,-6.984199524E0,5.623108864E0,1.013864016E1
3.399679479E0,-4.883106709E0,-7.506418705E0,6.138141155E0,1.085669516E1
3.404716094E0,-4.547736645E0,-7.597447872E0,6.178864956E0,1.079729109E1
3.409752656E0,-4.265068054E0,-7.645357609E0,5.970456123E0,1.059663365E1
3.414789219E0,-4.104569435E0,-7.657334805E0,5.948896885E0,1.052956033E1
3.419825833E0,-4.116547108E0,-7.798669338E0,5.889009476E0,1.060403867E1
3.424862917E0,-4.219553471E0,-7.956772327E0,5.850681305E0,1.073989428E1
3.429899531E0,-4.226739883E0,-7.757946491E0,5.472192287E0,1.039211010E1
3.434936146E0,-4.030308723E0,-7.269264698E0,4.868526459E0,9.632660460E0
3.439972708E0,-4.669907570E0,-7.755550861E0,6.399250507E0,1.108634353E1
3.445009271E0,-5.134634495E0,-7.300405979E0,6.238752365E0,1.088955600E1
3.450045885E0,-5.640084743E0,-7.175839901E0,6.847209454E0,1.140997421E1
3.455119479E0,-6.313220501E0,-6.658411980E0,7.187370300E0,1.165544916E1
3.460156094E0,-6.888140202E0,-6.402093410E0,7.980280399E0,1.233361872E1
3.465192656E0,-7.297770977E0,-6.057141304E0,8.540827751E0,1.276292132E1
3.470229219E0,-7.568462372E0,-6.011626720E0,9.156471252E0,1.331398679E1
3.475265833E0,-7.479828835E0,-6.167334080E0,9.834398270E0,1.380938950E1
3.480302396E0,-7.177995682E0,-6.339810371E0,1.004759789E1,1.388059944E1
3.485335989E0,-6.926468372E0,-6.768604755E0,1.057939911E1,1.434272150E1
3.490372604E0,-6.607866764E0,-7.048878193E0,1.084050846E1,1.452126753E1
3.495409167E0,-6.133557796E0,-7.125534058E0,1.072791958E1,1.426471259E1
3.500445729E0,-5.553846836E0,-7.159071445E0,1.071354675E1,1.403130795E1
3.505482344E0,-5.019650459E0,-7.300405979E0,1.070635986E1,1.389672478E1
3.510518906E0,-4.667511940E0,-7.592656612E0,1.039973640E1,1.369629948E1
3.515539583E0,-4.655534267E0,-7.882512569E0,1.002843380E1,1.357856724E1
3.520576198E0,-4.923830509E0,-8.124458313E0,9.582870483E0,1.349378881E1
3.525612760E0,-5.208894730E0,-8.313702583E0,9.053464890E0,1.334973638E1
3.530649375E0,-5.393348217E0,-8.342449188E0,8.648625374E0,1.317130913E1
3.535685937E0,-5.436467171E0,-8.287352562E0,8.246181488E0,1.289321127E1
3.540722552E0,-5.211290359E0,-8.157995224E0,7.805408955E0,1.243522586E1
3.545783542E0,-4.813637257E0,-8.028637886E0,7.386196613E0,1.192417839E1
3.550820156E0,-4.413589001E0,-7.908862591E0,7.129878044E0,1.152670969E1
3.555856719E0,-4.049472809E0,-7.805856228E0,7.077177048E0,1.128787210E1
3.560893281E0,-3.680565834E0,-7.702849865E0,7.086759090E0,1.109516180E1
3.565929844E0,-3.297285795E0,-7.741178036E0,7.137064934E0,1.103338692E1
3.570966458E0,-2.784648895E0,-7.789087772E0,7.331100464E0,1.105301732E1
3.575999687E0,-2.180982828E0,-7.817833424E0,7.498785019E0,1.105020282E1
3.581036302E0,-1.543779969E0,-7.863348484E0,7.575441360E0,1.102736677E1
3.586072864E0,-9.113680124E-1,-7.911258221E0,7.700007439E0,1.107739648E1
3.591109427E0,-4.346634448E-1,-8.007079124E0,7.843737125E0,1.121723943E1
3.596145989E0,-2.382324785E-1,-8.146018028E0,7.956326008E0,1.138935854E1
3.601182604E0,-2.909334600E-1,-8.198719025E0,7.906020641E0,1.139336642E1
3.606253333E0,-3.556119800E-1,-8.100502968E0,7.347868919E0,1.094238483E1
3.611289896E0,-2.645829618E-1,-8.098107338E0,7.489203453E0,1.103347248E1
3.616326458E0,-2.550009787E-1,-8.131645203E0,7.704798222E0,1.120502543E1
3.621363073E0,-3.364479542E-1,-8.107689857E0,7.532322407E0,1.107175293E1
3.626399635E0,-4.897599518E-1,-8.033429146E0,7.407756329E0,1.093849635E1
3.631436250E0,-6.550495028E-1,-7.923235416E0,7.383801460E0,1.085021997E1
3.636415885E0,-8.299210072E-1,-7.774714947E0,7.434106827E0,1.078892514E1
3.641452500E0,-9.784419537E-1,-7.573492527E0,7.426920414E0,1.065243092E1
3.646489062E0,-1.117380977E0,-7.424972057E0,7.316727161E0,1.048395186E1
3.651525625E0,-1.244342446E0,-7.424972057E0,7.103527546E0,1.035078266E1
3.656562239E0,-1.258715510E0,-7.506418705E0,6.976566315E0,1.032488083E1
3.661598854E0,-1.086239457E0,-7.585470676E0,6.935842514E0,1.033562736E1
3.666629062E0,-7.963839769E-1,-7.647753239E0,6.619636536E0,1.014603099E1
3.671665677E0,-8.299210072E-1,-8.004683495E0,6.847209454E0,1.056636191E1
3.676702239E0,-8.922040462E-1,-8.150808334E0,6.638800621E0,1.055013641E1
3.681738854E0,-1.282670498E0,-8.399940491E0,6.964588642E0,1.098679839E1
3.686775417E0,-8.059660196E-1,-8.399940491E0,7.141855717E0,1.105507506E1
3.691812031E0,3.055460155E-1,-8.258605957E0,7.149042130E0,1.092733884E1
3.696879948E0,1.352379560E0,-8.160390854E0,7.307145119E0,1.103699593E1
3.701916562E0,2.164454222E0,-8.074152946E0,7.474830151E0,1.121382600E1
3.706953125E0,2.866335630E0,-7.978332043E0,7.814991474E0,1.153012376E1
3.711989687E0,3.537075520E0,-7.865744114E0,8.207853317E0,1.190586787E1
3.717026302E0,4.183860779E0,-7.635776043E0,8.416262627E0,1.210963432E1
3.722062864E0,4.627027988E0,-7.393829823E0,8.308465004E0,1.204610718E1
3.727095312E0,4.825854778E0,-7.228540897E0,8.049750328E0,1.184648295E1
3.732131927E0,4.660564899E0,-7.228540897E0,7.700007439E0,1.154395007E1
3.737168489E0,4.203024387E0,-7.379456997E0,7.458061695E0,1.130241053E1
3.742205052E0,3.664037228E0,-7.645357609E0,7.364637375E0,1.123007326E1
3.747241667E0,3.096303701E0,-7.911258221E0,7.532322407E0,1.135389731E1
3.752278229E0,2.624390125E0,-8.205904961E0,7.714380264E0,1.156442660E1
3.757311562E0,2.415981531E0,-8.359217644E0,7.695216179E0,1.161593037E1
3.762348177E0,2.368071556E0,-8.380776405E0,7.611373901E0,1.156625215E1
3.767384739E0,2.466287136E0,-8.225069046E0,7.594605446E0,1.146352323E1
3.772421302E0,2.633972168E0,-7.966354847E0,7.549090862E0,1.128669091E1
3.777457917E0,2.732187510E0,-7.733991146E0,7.292772293E0,1.097560911E1
3.782494479E0,2.765724659E0,-7.532769680E0,6.933447361E0,1.060493019E1
3.787506406E0,2.751351595E0,-7.362688541E0,6.602868080E0,1.026532927E1
3.792543021E0,2.746560574E0,-7.252495289E0,6.334572315E0,1.001344543E1
3.797579583E0,2.811239243E0,-7.264473438E0,6.092626572E0,9.889172815E0
3.802616198E0,2.998088121E0,-7.271659374E0,5.953687668E0,9.864682422E0
3.807652760E0,3.160982132E0,-7.171048641E0,5.764443398E0,9.728543279E0
3.812689323E0,3.340644598E0,-7.127929688E0,5.546452522E0,9.629663729E0
3.817719167E0,3.529889107E0,-7.072833061E0,5.383558750E0,9.563879413E0
3.822755729E0,3.723924637E0,-7.010550022E0,5.266179085E0,9.526178062E0
3.827792344E0,3.877236605E0,-6.969826698E0,5.196709633E0,9.519308741E0
3.832828906E0,4.001802444E0,-6.924312115E0,5.141613007E0,9.507718200E0
3.837865469E0,4.104808807E0,-6.890775204E0,5.134426594E0,9.523369924E0
3.842902083E0,4.061689854E0,-6.969826698E0,4.696050167E0,9.334275325E0
3.847973958E0,3.529889107E0,-7.511209965E0,2.477817297E0,8.661291520E0
3.853010573E0,3.029229641E0,-8.184346199E0,5.805812478E-1,8.746246595E0
3.858047135E0,3.393345594E0,-8.455037117E0,1.272880793E0,9.199058239E0
3.863083698E0,4.236561775E0,-8.143622398E0,2.564055204E0,9.531076567E0
3.868120312E0,4.258121014E0,-8.033429146E0,1.922061205E0,9.293110227E0
3.873156875E0,3.527493715E0,-8.550857544E0,-9.669117332E-1,9.300284670E0
3.878197604E0,3.163377523E0,-9.231179237E0,-2.777909756E0,1.014585679E1
3.883234167E0,3.623313665E0,-9.372513771E0,-1.201670766E0,1.012010024E1
3.888270781E0,4.059294701E0,-9.027562141E0,2.257431269E0,1.015237645E1
3.893307344E0,4.318008423E0,-8.541275024E0,5.021838188E0,1.080821144E1
3.898343958E0,4.562349796E0,-8.157995224E0,6.212401867E0,1.122327308E1
3.903380521E0,4.737221241E0,-7.865744114E0,6.475906849E0,1.123603867E1
3.908450260E0,4.749198437E0,-7.626193523E0,6.435183048E0,1.105103137E1
3.913486875E0,4.765966892E0,-7.470486164E0,6.210006237E0,1.082066455E1
3.918523385E0,4.902510643E0,-7.216563225E0,5.666227818E0,1.040286177E1
3.923560000E0,4.919279099E0,-7.156675816E0,5.062561512E0,1.005220596E1
3.928596614E0,4.995934963E0,-7.156675816E0,4.612207890E0,9.871668375E0
3.933633177E0,5.144455910E0,-7.168653488E0,4.434940815E0,9.875409838E0
3.938675625E0,5.453475475E0,-7.185421944E0,4.384635448E0,1.002974134E1
3.943712239E0,5.815196037E0,-7.130325317E0,4.372657776E0,1.018715761E1
3.948748854E0,6.117029190E0,-7.091997147E0,4.324747562E0,1.031590573E1
3.953785364E0,6.385324955E0,-7.080019951E0,4.322352409E0,1.046813200E1
3.958821979E0,6.553009987E0,-7.101579189E0,4.351098061E0,1.059747240E1
3.963858594E0,6.612897396E0,-7.159071445E0,4.540342808E0,1.075162447E1
3.968852812E0,6.553009987E0,-7.276450634E0,4.856548786E0,1.093045012E1
3.973889427E0,6.473958492E0,-7.398621082E0,5.096098900E0,1.107347987E1
3.978925989E0,6.368556499E0,-7.535164356E0,4.983510017E0,1.105317085E1
3.983962552E0,6.119424820E0,-7.611820698E0,4.765519619E0,1.086726054E1
3.988999167E0,5.716980457E0,-7.719618320E0,4.645744801E0,1.067048815E1
3.994035729E0,5.350469112E0,-7.872930050E0,4.406194687E0,1.048928496E1
3.999042292E0,5.053427219E0,-8.031033516E0,4.183413029E0,1.036993590E1
4.004078906E0,4.821063519E0,-8.208300591E0,3.941467762E0,1.030310731E1
4.009115469E0,4.662960529E0,-8.407127380E0,3.771387339E0,1.032697217E1
4.014152031E0,4.442574501E0,-8.584394455E0,3.586933851E0,1.030991711E1
4.019188646E0,4.279680729E0,-8.720937729E0,3.325824261E0,1.026798564E1
4.024225208E0,4.413828850E0,-8.814362526E0,3.158139229E0,1.035126636E1
4.029294531E0,4.521625996E0,-8.696982384E0,2.956917286E0,1.023845516E1
4.034331094E0,4.440179348E0,-8.395150185E0,2.770068169E0,9.892775997E0
4.039367708E0,4.524021626E0,-8.074152946E0,2.688621283E0,9.637811052E0
4.044404271E0,4.706079483E0,-7.884908199E0,2.702994347E0,9.572102165E0
4.049440833E0,4.835436821E0,-7.583075047E0,2.398765802E0,9.307983336E0
4.054477448E0,5.089359760E0,-7.365084171E0,2.607174158E0,9.324344734E0
4.059507552E0,5.475035191E0,-7.214167595E0,2.829955816E0,9.488354670E0
4.064544167E0,5.961321831E0,-7.147093773E0,3.057528257E0,9.796263901E0
4.069580729E0,6.392511845E0,-7.125534058E0,3.265936852E0,1.011453344E1
4.074617292E0,6.517077446E0,-7.214167595E0,3.416853189E0,1.030492107E1
4.079653854E0,6.344601631E0,-7.324360371E0,3.285100698E0,1.023191631E1
4.084690469E0,6.021209240E0,-7.345920086E0,3.177303314E0,1.001562574E1
4.089713646E0,5.781659126E0,-7.451322079E0,3.091065168E0,9.924941655E0
4.094750312E0,5.673861504E0,-7.597447872E0,3.143766165E0,9.989854065E0
4.099786875E0,5.714585304E0,-7.789087772E0,3.038364172E0,1.012709388E1
4.104823542E0,5.707398415E0,-7.985518932E0,2.911402702E0,1.023812361E1
4.109860104E0,5.772077084E0,-8.165182114E0,2.861097336E0,1.040062261E1
4.114896719E0,5.937366486E0,-8.299329758E0,3.000036240E0,1.063632515E1
4.119931354E0,6.049954891E0,-8.402336121E0,3.035968781E0,1.078973183E1
4.124968021E0,6.049954891E0,-8.404731750E0,2.839537859E0,1.073799074E1
4.130004635E0,6.066723824E0,-8.328075409E0,2.719762802E0,1.065641064E1
4.135041250E0,6.145775318E0,-8.294538498E0,2.614360809E0,1.064916924E1
4.140077812E0,6.102655888E0,-8.189136505E0,2.219103336E0,1.045125759E1
4.145114427E0,6.073910236E0,-8.095712662E0,1.941225290E0,1.030540172E1
4.150175573E0,6.203267097E0,-8.026242256E0,1.780726790E0,1.029912983E1
4.155212187E0,6.421257496E0,-8.004683495E0,1.692093253E0,1.040051370E1
4.160248802E0,6.658411980E0,-7.997496128E0,1.646578789E0,1.053592028E1
4.165285417E0,6.821306229E0,-8.014265060E0,1.744794250E0,1.066784749E1
4.170321979E0,6.782978058E0,-8.093317032E0,1.778331280E0,1.070854958E1
4.175358646E0,6.574569702E0,-8.143622398E0,1.665742755E0,1.059803055E1
4.180414271E0,6.476354122E0,-8.189136505E0,1.402237773E0,1.053429590E1
4.185450885E0,6.399698257E0,-8.203509331E0,1.179456234E0,1.047114226E1
4.190487500E0,6.167334557E0,-8.184346199E0,1.033330798E0,1.029986945E1
4.195524114E0,5.925389290E0,-8.126853943E0,1.018957734E0,1.010911807E1
4.200560729E0,5.827173710E0,-8.112481117E0,1.301626801E0,1.007286134E1
4.205597344E0,5.906225204E0,-8.174763680E0,1.368700743E0,1.017760282E1
4.210604271E0,5.846337795E0,-8.186740875E0,1.366305232E0,1.015229933E1
4.215640885E0,5.762495041E0,-8.251420021E0,1.349536777E0,1.015448329E1
4.220677500E0,5.690629959E0,-8.419104576E0,1.361514211E0,1.025272218E1
4.225714114E0,5.561273098E0,-8.558043480E0,1.248925686E0,1.028239671E1
4.230750729E0,5.419938564E0,-8.685005188E0,1.100404739E0,1.029640421E1
4.235787344E0,5.290581703E0,-8.713750839E0,9.063692093E-1,1.023431549E1
4.240834479E0,5.091754913E0,-8.716146469E0,7.027517557E-1,1.011884566E1
4.245871094E0,4.943233967E0,-8.644281387E0,6.572372317E-1,9.979535236E0
4.250907708E0,4.849809647E0,-8.603558540E0,7.698257565E-1,9.906286129E0
4.255944323E0,4.622237206E0,-8.548461914E0,8.177357912E-1,9.752434040E0
4.260980937E0,4.370709419E0,-8.488574028E0,8.488771915E-1,9.585383787E0
4.266017552E0,4.222188473E0,-8.373590469E0,7.674302459E-1,9.409189233E0
4.271066927E0,4.183860779E0,-8.282561302E0,6.284912229E-1,9.300565249E0
4.276103542E0,4.226979733E0,-8.203509331E0,5.063207150E-1,9.242363532E0
4.281140156E0,4.315613270E0,-8.169972420E0,3.506132364E-1,9.246399130E0
4.286176771E0,4.423410416E0,-8.150808334E0,1.781372577E-1,9.275449805E0
4.291213333E0,4.567140579E0,-8.124458313E0,5.596674979E-2,9.320339491E0
4.296249948E0,4.706079483E0,-8.023847580E0,-1.045317426E-1,9.302700735E0
4.301274583E0,4.804295063E0,-7.980727673E0,-3.249177337E-1,9.320881759E0
4.306311198E0,4.876160145E0,-7.978332043E0,-5.069757700E-1,9.364173448E0
4.311347812E0,4.969584465E0,-7.930422306E0,-5.884227157E-1,9.377345520E0
4.316384427E0,5.041449547E0,-7.865744114E0,-5.740497708E-1,9.360324628E0
4.321420989E0,5.079777718E0,-7.834601879E0,-5.333262682E-1,9.352516516E0
4.326457656E0,5.127687454E0,-7.753155231E0,-5.860272646E-1,9.313861854E0
4.331500521E0,5.096546173E0,-7.757946491E0,-6.746607423E-1,9.306754739E0
4.336537135E0,5.096546173E0,-7.820229053E0,-7.393392324E-1,9.363620445E0
4.341573750E0,5.110918999E0,-7.846580029E0,-7.848537564E-1,9.397143533E0
4.346610364E0,5.084568501E0,-7.911258221E0,-7.920402288E-1,9.437593507E0
4.351646927E0,5.065404415E0,-7.978332043E0,-8.040177822E-1,9.484648052E0
4.356683594E0,5.072591305E0,-8.011869431E0,-8.686962724E-1,9.522387701E0
4.361692396E0,5.089359760E0,-8.052593231E0,-9.573297501E-1,9.574044118E0
4.366729062E0,5.060613632E0,-8.153203964E0,-1.232812285E0,9.674935212E0
4.371765625E0,5.067800045E0,-8.191532135E0,-1.402892709E0,9.734058967E0
4.376802292E0,5.043845177E0,-8.205904961E0,-1.443616271E0,9.739675473E0
4.381838854E0,5.115710258E0,-8.210696220E0,-1.465175748E0,9.784312129E0
4.386875469E0,5.161224842E0,-8.208300591E0,-1.604114771E0,9.827900318E0
4.391936771E0,5.115710258E0,-8.340053558E0,-1.790963769E0,9.946584139E0
4.396973385E0,5.003121853E0,-8.467014313E0,-1.984999299E0,1.003303453E1
4.402010000E0,4.950420856E0,-8.507738113E0,-2.114356279E0,1.006770962E1
4.407046614E0,4.967189312E0,-8.529297829E0,-2.322764874E0,1.013987809E1
4.412083229E0,4.955211639E0,-8.514925003E0,-2.523986816E0,1.016998425E1
4.417119792E0,4.943233967E0,-8.526902199E0,-2.636575222E0,1.020270317E1
4.422155000E0,4.897719860E0,-8.512529373E0,-2.725208759E0,1.019203507E1
4.427191614E0,4.849809647E0,-8.488574028E0,-2.921639681E0,1.020355433E1
4.432228229E0,4.773153782E0,-8.445455551E0,-3.022250652E0,1.016084226E1
4.437264844E0,4.742012024E0,-8.407127380E0,-3.209099770E0,1.017176436E1
4.442301458E0,4.715661526E0,-8.349635124E0,-3.379180193E0,1.016723803E1
4.447338073E0,4.785130978E0,-8.229860306E0,-3.460627317E0,1.012936427E1
4.452386614E0,4.888137817E0,-8.131645203E0,-3.448649645E0,1.009508442E1
4.457423229E0,5.024681091E0,-7.971146107E0,-3.549260855E0,1.006895441E1
4.462459844E0,5.072591305E0,-7.801064968E0,-3.762460232E0,1.003712629E1
4.467496458E0,5.151642799E0,-7.650148869E0,-3.879839659E0,1.000586613E1
4.472533021E0,5.242671490E0,-7.573492527E0,-4.021173954E0,1.005053398E1
4.477569687E0,5.328909397E0,-7.518395901E0,-4.131367207E0,1.009909636E1
4.482579739E0,5.376819611E0,-7.487254620E0,-4.301447868E0,1.017210031E1
4.487616354E0,5.458266735E0,-7.463299274E0,-4.514647484E0,1.028958472E1
4.492652969E0,5.515758514E0,-7.408203602E0,-4.761383533E0,1.039114266E1
4.497689583E0,5.590019226E0,-7.369875431E0,-4.948232651E0,1.049039490E1
4.502726198E0,5.623556137E0,-7.264473438E0,-5.135081768E0,1.052454383E1
4.507762812E0,5.522944927E0,-7.147093773E0,-5.444101334E0,1.054618933E1
4.512811042E0,5.362446785E0,-6.979408741E0,-5.736352444E0,1.050588984E1
4.517847708E0,5.204343796E0,-6.794955254E0,-5.707606316E0,1.028753523E1
4.522884271E0,5.089359760E0,-6.617688179E0,-5.731561184E0,1.012650844E1
4.527920885E0,5.120501041E0,-6.416466236E0,-5.556689739E0,9.912990000E0
4.532957500E0,5.225903034E0,-6.164938927E0,-5.309953213E0,9.670167404E0
4.537994114E0,5.113314629E0,-5.908620358E0,-5.523152828E0,9.568855636E0
4.543035260E0,4.955211639E0,-5.733748913E0,-5.717188358E0,9.492957480E0
4.548071875E0,4.897719860E0,-5.518153667E0,-5.602204323E0,9.264036539E0
4.553108489E0,4.823459148E0,-5.340886593E0,-5.575853825E0,9.103898815E0
4.558145104E0,4.847414017E0,-5.130082607E0,-5.348281384E0,8.855466332E0
4.563181667E0,4.928861141E0,-4.904905796E0,-5.056030273E0,8.597395835E0
4.568218281E0,4.878555775E0,-4.689310551E0,-5.022493362E0,8.427062327E0
4.573254531E0,4.737221241E0,-4.490484238E0,-4.974583149E0,8.206838081E0
4.578291146E0,4.526417255E0,-4.298844337E0,-5.194969177E0,8.121343519E0
4.583327760E0,4.437783718E0,-4.195837975E0,-5.408168793E0,8.157651030E0
4.588364375E0,4.358732224E0,-4.052107811E0,-5.503988743E0,8.106294862E0
4.593400937E0,4.306031227E0,-3.834117651E0,-5.551898956E0,8.004120508E0
4.598437552E0,4.231770515E0,-3.596963167E0,-5.731561184E0,7.981028714E0
4.603503021E0,4.301239967E0,-3.287943602E0,-5.666882992E0,7.837397606E0
4.608539635E0,4.452156544E0,-2.938200474E0,-5.611786366E0,7.742536156E0
4.613576250E0,4.524021626E0,-2.562107086E0,-5.693233490E0,7.709998182E0
4.618612812E0,4.464134216E0,-2.289020061E0,-5.889664173E0,7.736682184E0
4.623649479E0,4.387478352E0,-2.114148378E0,-6.138796329E0,7.836096607E0
4.628686094E0,4.315613270E0,-1.934485912E0,-6.282526493E0,7.863643734E0
4.633685573E0,4.387478352E0,-1.781173944E0,-6.325645447E0,7.901666737E0
4.638722187E0,4.334777355E0,-1.570369959E0,-6.529262543E0,7.992973532E0
4.643758802E0,4.282076359E0,-1.400289536E0,-6.780790329E0,8.141013832E0
4.648795417E0,4.277285099E0,-1.220626950E0,-6.898169994E0,8.207913696E0
4.653831979E0,4.473716259E0,-1.021800518E0,-6.893378735E0,8.281116099E0
4.658868594E0,4.739616394E0,-8.996298909E-1,-6.797558784E0,8.335472568E0
4.663905989E0,4.892928600E0,-8.205783963E-1,-6.902960777E0,8.500880348E0
4.668942604E0,4.979166508E0,-7.031989694E-1,-7.226353168E0,8.803792820E0
4.673979219E0,5.173202038E0,-6.313338876E-1,-7.429970741E0,9.075520206E0
4.679015833E0,5.448684692E0,-5.307229161E-1,-7.552141190E0,9.327629294E0
4.684052396E0,5.767286301E0,-4.468804002E-1,-7.647961140E0,9.589191987E0
4.689089010E0,6.071514606E0,-3.726199269E-1,-7.700662136E0,9.813375187E0
4.694114114E0,6.414071083E0,-2.815908790E-1,-7.806064129E0,1.010713800E1
4.699150781E0,6.744649887E0,-2.360764295E-1,-7.849183083E0,1.035160419E1
4.704187344E0,7.072833538E0,-1.953529269E-1,-7.853974342E0,1.057109502E1
4.709223958E0,7.336338520E0,-1.522339731E-1,-7.904279709E0,1.078529906E1
4.714260573E0,7.652544498E0,-1.115104631E-1,-8.062382698E0,1.111646916E1
4.719297187E0,8.064570427E0,-1.139059141E-1,-8.031241417E0,1.138205207E1
4.724353958E0,8.490968704E0,-1.043239310E-1,-7.954585075E0,1.163541390E1
4.729390573E0,8.720936775E0,-1.450474411E-1,-8.016867638E0,1.184676934E1
4.734427187E0,8.881435394E0,-2.193079740E-1,-8.186948776E0,1.208114733E1
4.739463802E0,9.044329643E0,-2.959639430E-1,-8.316305161E0,1.229017595E1
4.744500417E0,9.128171921E0,-3.678289056E-1,-8.364214897E0,1.238623880E1
4.749537031E0,9.166500092E0,-4.612534642E-1,-8.352237701E0,1.240956701E1
4.754548021E0,9.257529259E0,-5.570734143E-1,-8.416915894E0,1.252424257E1
4.759584635E0,9.082657814E0,-7.151764035E-1,-8.208508492E0,1.226318727E1
4.764621250E0,9.152127266E0,-8.229739070E-1,-8.196530342E0,1.231348160E1
4.769657917E0,9.087449074E0,-9.858679175E-1,-8.349842072E0,1.238036869E1
4.774694479E0,8.891017914E0,-1.122411489E0,-8.301932335E0,1.221605859E1
4.779731094E0,8.814361572E0,-1.239790916E0,-8.242044449E0,1.213100771E1
4.784787239E0,8.807174683E0,-1.321238041E0,-8.100710869E0,1.203883352E1
4.789823854E0,8.749683380E0,-1.455385923E0,-7.961771965E0,1.191909897E1
4.794860469E0,8.483782768E0,-1.599116087E0,-7.892302036E0,1.169701559E1
4.799897083E0,8.203509331E0,-1.678167582E0,-7.703057766E0,1.137764961E1
4.804933698E0,8.009473801E0,-1.781173944E0,-7.439552784E0,1.107570299E1
4.809970312E0,7.832207203E0,-1.939276934E0,-7.257494926E0,1.085244200E1
4.815016875E0,7.719618797E0,-2.068634033E0,-7.142510891E0,1.071854575E1
4.820053489E0,7.693268299E0,-2.166849375E0,-6.967639446E0,1.060328311E1
4.825090104E0,7.688477039E0,-2.178827047E0,-6.735275745E0,1.045102415E1
4.830126719E0,7.760342121E0,-2.166849375E0,-6.526867390E0,1.036909562E1
4.835163281E0,7.887303829E0,-2.145289898E0,-6.280130863E0,1.030785497E1
4.840199948E0,8.105294228E0,-2.157267570E0,-6.251384735E0,1.046085126E1
4.845233437E0,8.191531181E0,-2.291415453E0,-6.234616280E0,1.054619401E1
4.850270052E0,7.733991623E0,-2.375257969E0,-5.927992344E0,1.002983400E1
4.855306667E0,6.296691418E0,-2.399213076E0,-5.182991982E0,8.501055939E0
4.860343281E0,7.568702221E0,-2.281833410E0,-6.869423866E0,1.047286977E1
4.865379844E0,9.307834625E0,-2.195595503E0,-9.125984192E0,1.321892630E1
4.870416458E0,7.657335758E0,-2.332139015E0,-7.140115261E0,1.072636515E1
4.875464635E0,7.137512207E0,-2.564502478E0,-5.662091732E0,9.464673066E0
4.880501250E0,7.415390015E0,-2.495033026E0,-5.808217049E0,9.744156411E0
4.885537864E0,6.885984421E0,-2.372862577E0,-5.503988743E0,9.129137437E0
4.890574479E0,7.307592392E0,-2.713023424E0,-5.633345604E0,9.617483317E0
4.895611042E0,7.992705822E0,-3.060370922E0,-5.858522892E0,1.037166848E1
4.900647656E0,7.757946491E0,-2.871126413E0,-5.465660572E0,9.914764048E0
4.905654114E0,7.518396854E0,-2.641158581E0,-4.984165192E0,9.399144247E0
4.910690781E0,7.396225929E0,-2.643553972E0,-4.780547619E0,9.194899191E0
4.915727344E0,7.144698620E0,-2.617203474E0,-4.495483398E0,8.837751036E0
4.920764010E0,7.137512207E0,-2.576479912E0,-4.406849861E0,8.775115665E0
4.925800573E0,7.434554100E0,-2.686672926E0,-4.612862587E0,9.152557420E0
4.930837187E0,8.284955978E0,-3.462815046E0,-4.387685776E0,9.994166802E0
4.935892760E0,9.264715195E0,-3.807767153E0,-4.128971577E0,1.083431791E1
4.940929375E0,7.616611958E0,-3.513120413E0,-4.658377171E0,9.594543794E0
4.945965989E0,7.353106976E0,-3.426882505E0,-4.615258217E0,9.333397790E0
4.951002604E0,8.220277786E0,-3.309502840E0,-4.838039875E0,1.009615797E1
4.956039219E0,8.874249458E0,-3.280757189E0,-5.415355206E0,1.090145601E1
4.961075833E0,9.130567551E0,-3.244824648E0,-5.772284985E0,1.127898155E1
4.966125364E0,9.149731636E0,-3.170563936E0,-5.901641846E0,1.134016936E1
4.971161979E0,9.063493729E0,-3.096303463E0,-5.721979141E0,1.115683911E1
4.976198594E0,8.799988747E0,-2.952573538E0,-5.515966415E0,1.079737829E1
4.981235208E0,8.685004234E0,-2.741769552E0,-5.341094971E0,1.055811983E1
4.986271823E0,8.742496490E0,-2.487846375E0,-5.159036636E0,1.045161631E1
4.991308385E0,8.934136391E0,-2.219550371E0,-5.302766800E0,1.062377205E1
4.996332187E0,9.178477287E0,-2.001559973E0,-5.480033875E0,1.087572797E1
5.001368802E0,9.049120903E0,-1.716495514E0,-5.424937248E0,1.068938212E1
5.006405417E0,8.859875679E0,-1.548810482E0,-5.333908081E0,1.045690138E1
5.011441979E0,9.017979622E0,-1.481736422E0,-5.319535255E0,1.057435363E1
5.016478646E0,9.391676903E0,-1.520064592E0,-5.798635483E0,1.114173976E1
5.021515260E0,9.980970383E0,-1.778778553E0,-7.130533218E0,1.239468946E1
5.026531667E0,1.023728848E1,-2.071029425E0,-7.973749161E0,1.314046856E1
5.031568333E0,1.081699944E1,-2.341721058E0,-8.824151039E0,1.415474393E1
5.036604896E0,1.182550526E1,-2.689068556E0,-1.043632317E1,1.599970329E1
5.041641562E0,1.239802933E1,-2.775306463E0,-1.134421730E1,1.703246087E1
5.046678125E0,1.299930000E1,-2.526174545E0,-1.087709522E1,1.713693552E1
5.051714739E0,1.333467007E1,-2.420772552E0,-1.138254547E1,1.769847188E1
5.056764792E0,1.342330360E1,-2.269855976E0,-1.137535858E1,1.774080350E1
5.061801406E0,1.357661533E1,-1.898553371E0,-1.063754463E1,1.735183980E1
5.066838021E0,1.365087605E1,-1.524855375E0,-1.046027756E1,1.726525434E1
5.071874635E0,1.356942940E1,-1.203858495E0,-1.088188553E1,1.743542721E1
5.076911250E0,1.327238750E1,-8.469288945E-1,-1.037883091E1,1.686990485E1
5.081947864E0,1.274058628E1,-5.858194232E-1,-8.833733559E0,1.551452776E1
5.086958542E0,1.197402573E1,-4.564624429E-1,-7.985726833E0,1.439991261E1
5.091995208E0,1.136796474E1,-4.492759109E-1,-7.473089695E0,1.361174276E1
5.097031771E0,1.095114803E1,-5.139544606E-1,-6.886192322E0,1.294648358E1
5.102068385E0,1.067806053E1,-5.810284019E-1,-6.311272144E0,1.241735587E1
5.107105000E0,1.051995754E1,-6.481024623E-1,-5.815403938E0,1.203779326E1
5.112141614E0,1.043611526E1,-7.319449782E-1,-5.468056202E0,1.180457047E1
5.117174114E0,1.027561665E1,-7.295494676E-1,-5.465660572E0,1.166164591E1
5.122210729E0,1.006241703E1,-7.103853822E-1,-5.559085369E0,1.151782592E1
5.127247344E0,9.856404305E0,-5.666554570E-1,-5.616577148E0,1.135850972E1
5.132283958E0,9.695905685E0,-3.103368878E-1,-5.448892117E0,1.112642446E1
5.137320521E0,9.616853714E0,2.982406877E-2,-5.391400337E0,1.102506065E1
5.142357187E0,9.578526497E0,3.747760653E-1,-5.297975540E0,1.095249614E1
5.147447812E0,9.571339607E0,6.837955713E-1,-5.209342480E0,1.091857900E1
5.152484427E0,9.576130867E0,1.009583592E0,-5.166223049E0,1.092755243E1
5.157520989E0,9.580921173E0,1.325789571E0,-5.154245853E0,1.095983662E1
5.162557656E0,9.561758041E0,1.630017996E0,-5.142268181E0,1.097848339E1
5.167594219E0,9.499474525E0,2.003715992E0,-5.161432266E0,1.099523884E1
5.172630833E0,9.379699707E0,2.295967102E0,-5.137477398E0,1.093818566E1
5.177623958E0,9.264715195E0,2.422928572E0,-5.087171555E0,1.084365459E1
5.182660625E0,9.063493729E0,2.554681063E0,-4.883554459E0,1.060765846E1
5.187697187E0,8.723332405E0,2.655292034E0,-4.617653847E0,1.022104843E1
5.192733802E0,8.304120064E0,2.755903006E0,-4.442782402E0,9.812834804E0
5.197770364E0,7.954377651E0,2.930774450E0,-4.366126060E0,9.535440182E0
5.202807031E0,7.647753716E0,3.103250504E0,-4.217605114E0,9.268575591E0
5.207870417E0,7.319570065E0,3.251771450E0,-3.970868826E0,8.939682473E0
5.212907031E0,6.943476677E0,3.462575436E0,-3.716945648E0,8.603312267E0
5.217943646E0,6.667994022E0,3.709311962E0,-3.534887791E0,8.409314550E0
5.222980260E0,6.509891033E0,3.965630531E0,-3.451045275E0,8.367473948E0
5.228016823E0,6.497913837E0,4.145293236E0,-3.221077204E0,8.353542877E0
5.233053437E0,6.394906998E0,4.332142353E0,-2.880916357E0,8.243905138E0
5.238054323E0,6.308669090E0,4.557319164E0,-2.500031710E0,8.174265851E0
5.243090937E0,6.136193275E0,4.693862438E0,-2.250899792E0,8.046847978E0
5.248127552E0,5.894247532E0,4.758541107E0,-2.025722742E0,7.841518990E0
5.253164167E0,5.606787682E0,4.777705193E0,-1.695143700E0,7.558839010E0
5.258200781E0,5.360051155E0,4.789682865E0,-1.419661283E0,7.327117339E0
5.263237344E0,5.240276337E0,4.851965904E0,-1.103455186E0,7.226318742E0
5.268309219E0,5.063009262E0,5.050792217E0,-6.962202191E-1,7.185352281E0
5.273345833E0,4.895324230E0,5.235245705E0,-2.458662391E-1,7.171641870E0
5.278382396E0,4.878555775E0,5.400535107E0,1.182497591E-1,7.278740886E0
5.283419062E0,4.952816010E0,5.520310402E0,4.560152292E-1,7.430488762E0
5.288455625E0,4.976771355E0,5.620921135E0,7.746167183E-1,7.547386209E0
5.293492239E0,5.010308266E0,5.771837711E0,1.095613718E0,7.721247885E0
5.298530521E0,5.055822849E0,5.920358658E0,1.359118700E0,7.903112992E0
5.303567135E0,5.067800045E0,6.088043690E0,1.569922686E0,8.075365658E0
5.308603750E0,5.041449547E0,6.183863640E0,1.744794250E0,8.167049040E0
5.313640364E0,4.967189312E0,6.193445683E0,1.902897358E0,8.164114002E0
5.318676927E0,4.914488316E0,6.219796181E0,1.962784767E0,8.166430308E0
5.323713594E0,4.777944565E0,6.253333092E0,1.936434269E0,8.104486825E0
5.328765937E0,4.636610031E0,6.246146679E0,2.025067806E0,8.038246111E0
5.333802552E0,4.432992458E0,6.198236942E0,2.164006710E0,7.921646822E0
5.338839114E0,4.155114651E0,6.171886444E0,2.298154831E0,7.787083900E0
5.343875729E0,3.894005060E0,6.128767014E0,2.444280148E0,7.661564198E0
5.348912344E0,3.786207676E0,6.267706394E0,2.489794731E0,7.734247850E0
5.353948906E0,3.800580740E0,6.368317127E0,2.492190361E0,7.823738863E0
5.358960989E0,3.807767153E0,6.413831711E0,2.599987745E0,7.899130596E0
5.363997604E0,3.822140217E0,6.466532707E0,2.741322279E0,7.996227168E0
5.369034167E0,3.762252569E0,6.509651661E0,2.863492727E0,8.045476974E0
5.374070833E0,3.728715658E0,6.576725960E0,2.930566788E0,8.108320819E0
5.379107396E0,3.685596704E0,6.615053654E0,3.088669777E0,8.178168432E0
5.384144010E0,3.584985733E0,6.579121113E0,3.287496328E0,8.181967333E0
5.389159792E0,3.414905071E0,6.552770615E0,3.428830624E0,8.145996490E0
5.394196458E0,3.278361559E0,6.605471611E0,3.548605680E0,8.183673502E0
5.399233021E0,3.237638235E0,6.720455647E0,3.572560787E0,8.271034761E0
5.404269635E0,3.194519043E0,6.792320728E0,3.577351809E0,8.314927465E0
5.409306250E0,3.230451584E0,6.823462486E0,3.627657175E0,8.375879316E0
5.414342812E0,3.355017662E0,6.849812984E0,3.632448196E0,8.448121764E0
5.419419219E0,3.493956566E0,6.991147041E0,3.579747200E0,8.596421317E0
5.424455833E0,3.690387726E0,7.103735924E0,3.553396702E0,8.758347662E0
5.429492448E0,3.824535608E0,7.115713120E0,3.469554186E0,8.791942451E0
5.434529010E0,3.920355558E0,7.077385426E0,3.424039841E0,8.785364022E0
5.439565625E0,3.925146580E0,6.993542671E0,3.378525257E0,8.702347251E0
5.444602239E0,3.865259171E0,6.945632935E0,3.483927250E0,8.678697736E0
5.449606458E0,3.800580740E0,6.866581440E0,3.596515656E0,8.633034200E0
5.454643125E0,3.671223640E0,6.782738686E0,3.752223253E0,8.576864604E0
5.459679687E0,3.472397089E0,6.809089184E0,3.840856552E0,8.554146136E0
5.464716302E0,3.321480513E0,6.969587803E0,3.967818260E0,8.680493574E0
5.469752917E0,3.271175146E0,7.017497540E0,4.121130466E0,8.770950626E0
5.474789531E0,3.218474150E0,6.976774216E0,4.387030602E0,8.847598081E0
5.479832187E0,3.077139616E0,6.897722721E0,4.605021477E0,8.846105909E0
5.484868854E0,2.907059193E0,6.734828949E0,4.808638573E0,8.771084257E0
5.489905417E0,2.710628033E0,6.586307526E0,4.914040565E0,8.653019463E0
5.494942031E0,2.499824047E0,6.435391426E0,4.918831825E0,8.476926896E0
5.499978646E0,2.451914072E0,6.368317127E0,4.911645412E0,8.407830059E0
5.505015260E0,2.499824047E0,6.262915134E0,4.947577953E0,8.363716510E0
5.510088802E0,2.487846613E0,6.111998558E0,5.055375099E0,8.312804854E0
5.515125469E0,2.435145617E0,6.040133953E0,5.175150394E0,8.318373275E0
5.520162031E0,2.581271172E0,6.040133953E0,5.175150394E0,8.362317899E0
5.525198646E0,2.710628033E0,6.059297562E0,5.227851391E0,8.449439120E0
5.530235208E0,2.760933638E0,5.975455284E0,5.357208252E0,8.486960625E0
5.535271875E0,2.758538008E0,5.903590202E0,5.496147156E0,8.524643264E0
5.540291250E0,2.746560574E0,5.743091583E0,5.601549149E0,8.479625510E0
5.545327864E0,2.744165182E0,5.505937099E0,5.824330807E0,8.471635924E0
5.550364427E0,2.684277534E0,5.232850075E0,6.080649376E0,8.459454038E0
5.555401094E0,2.547734022E0,4.957367897E0,6.399250507E0,8.486274340E0
5.560437656E0,2.324952602E0,4.648348331E0,6.693897247E0,8.474715758E0
5.565474271E0,2.114148617E0,4.415984631E0,7.062804222E0,8.593820344E0
5.570520885E0,2.020724058E0,4.315373421E0,7.309540749E0,8.725546369E0
5.575557500E0,1.956045508E0,4.245903969E0,7.726357937E0,9.030527200E0
5.580594062E0,1.917717457E0,4.051868439E0,8.049750328E0,9.213780898E0
5.585630729E0,1.793151498E0,3.800341129E0,8.217435837E0,9.229530688E0
5.590667292E0,1.752428055E0,3.632656097E0,8.346793175E0,9.270175333E0
5.595703906E0,1.764405489E0,3.623074055E0,8.459381104E0,9.370214565E0
5.600713281E0,1.778778553E0,3.551208973E0,8.526454926E0,9.406145433E0
5.605749948E0,1.718891025E0,3.486530542E0,8.581551552E0,9.420908057E0
5.610786510E0,1.563183546E0,3.333218575E0,8.715700150E0,9.461359203E0
5.615823125E0,1.436221957E0,3.182301998E0,8.967226982E0,9.622938183E0
5.620859687E0,1.429035544E0,3.086482048E0,9.235523224E0,9.841920709E0
5.625896302E0,1.431431055E0,2.959520578E0,9.508609772E0,1.006088548E1
5.630925989E0,1.242186546E0,2.787044525E0,9.764928818E0,1.023056594E1
5.635962656E0,8.109965324E-1,2.542703629E0,1.008353043E1,1.043075467E1
5.640999219E0,3.414785266E-1,2.401369095E0,1.038775826E1,1.066717876E1
5.646035833E0,-1.784647629E-2,2.276803017E0,1.055065250E1,1.079353597E1
5.651072396E0,-2.310459763E-1,2.130677462E0,1.057460785E1,1.078960147E1
5.656109062E0,-3.747759759E-1,1.867172480E0,1.053867531E1,1.070936354E1
5.661170937E0,-5.113195181E-1,1.519824982E0,1.056263065E1,1.068365490E1
5.666207552E0,-6.095349789E-1,1.222783089E0,1.062730885E1,1.071477600E1
5.671244114E0,-6.406764984E-1,9.425095916E-1,1.066324139E1,1.072396883E1
5.676280729E0,-6.406764984E-1,6.814000607E-1,1.076385212E1,1.080441044E1
5.681317344E0,-6.454675198E-1,4.538275599E-1,1.105131245E1,1.107944469E1
5.686353958E0,-7.364965081E-1,2.166730613E-1,1.136033154E1,1.138624200E1
5.691411667E0,-8.874130249E-1,3.940605000E-2,1.166216469E1,1.169594545E1
5.696448281E0,-1.043120503E0,3.473570105E-3,1.194483376E1,1.199029465E1
5.701484844E0,-1.088634968E0,-3.245891258E-2,1.227301693E1,1.232124686E1
5.706521510E0,-1.035933971E0,-6.599593908E-2,1.247184372E1,1.251496706E1
5.711558073E0,-9.329274893E-1,-1.306744367E-1,1.223948002E1,1.227567923E1
5.716594687E0,-8.011749983E-1,-1.594204456E-1,1.199513912E1,1.202292222E1
5.721586562E0,-6.095349789E-1,-5.880947039E-2,1.181068611E1,1.182655055E1
5.726623229E0,-2.765604556E-1,8.252506703E-2,1.159029961E1,1.159389240E1
5.731659792E0,1.809800267E-1,2.070910782E-1,1.140345097E1,1.140676704E1
5.736696406E0,5.906105042E-1,2.909335792E-1,1.120941544E1,1.122873357E1
5.741733021E0,1.057733059E0,3.867535591E-1,1.113994598E1,1.119673051E1
5.746769635E0,1.548810482E0,4.514320791E-1,1.115911007E1,1.127512050E1
5.751842656E0,1.929695010E0,5.736025572E-1,1.125732517E1,1.143591329E1
5.756879271E0,2.248296738E0,7.652425766E-1,1.128367615E1,1.153090551E1
5.761915885E0,2.483055592E0,9.784420729E-1,1.132679462E1,1.163697514E1
5.766952500E0,2.631576538E0,1.079053044E0,1.141303253E1,1.176209429E1
5.771989062E0,2.736978531E0,1.167686582E0,1.143459225E1,1.181543242E1
5.777025677E0,2.756142616E0,1.220387578E0,1.145615196E1,1.184605781E1
5.782051354E0,2.787284136E0,1.225178599E0,1.149448013E1,1.189088260E1
5.787087969E0,2.760933638E0,1.208410025E0,1.148729324E1,1.187606481E1
5.792124531E0,2.725001097E0,1.215596557E0,1.150885296E1,1.188936510E1
5.797161198E0,2.667509079E0,1.268297553E0,1.148010635E1,1.185398774E1
5.802197760E0,2.578875542E0,1.280274987E0,1.141063690E1,1.176827675E1
5.807234375E0,2.497428656E0,1.265902042E0,1.140824127E1,1.174681347E1
5.812245312E0,2.408795118E0,1.282670498E0,1.134595871E1,1.166954655E1
5.817281927E0,2.346512079E0,1.270693064E0,1.128128052E1,1.159258685E1
5.822318489E0,2.372862577E0,1.275484085E0,1.122139263E1,1.154023349E1
5.827355104E0,2.324952602E0,1.253924608E0,1.117348289E1,1.148148298E1
5.832391667E0,2.310579538E0,1.237156034E0,1.111838627E1,1.142312768E1
5.837428333E0,2.250692129E0,1.170082092E0,1.113755035E1,1.142277265E1
5.842460417E0,2.123730659E0,1.165291071E0,1.109682655E1,1.135815543E1
5.847497031E0,2.020724058E0,1.213201046E0,1.093632793E1,1.118742380E1
5.852533646E0,1.927299500E0,1.225178599E0,1.071115112E1,1.095190871E1
5.857570260E0,1.838665962E0,1.280274987E0,1.044525051E1,1.068283927E1
5.862606823E0,1.754823446E0,1.364117503E0,1.025121498E1,1.048940563E1
5.867643437E0,1.678167462E0,1.471915007E0,1.010029888E1,1.034402327E1
5.872685000E0,1.635048509E0,1.596481085E0,1.000208282E1,1.025981463E1
5.877721667E0,1.661399007E0,1.747397542E0,9.839189529E0,1.013031566E1
5.882758229E0,1.752428055E0,1.831240058E0,9.719413757E0,1.004447351E1
5.887794844E0,1.917717457E0,1.907896042E0,9.714623451E0,1.008422612E1
5.892831458E0,2.083007097E0,1.972574472E0,9.563706398E0,9.984710746E0
5.897868073E0,2.257878542E0,2.089954138E0,9.309783936E0,9.804998763E0
5.902929687E0,2.444727659E0,2.212124586E0,9.087001801E0,9.666632828E0
5.907966302E0,2.576480150E0,2.269616604E0,8.842660904E0,9.485887484E0
5.913002864E0,2.684277534E0,2.358250141E0,8.636648178E0,9.346570567E0
5.918039531E0,2.672300100E0,2.449279070E0,8.473753929E0,9.216542814E0
5.923076094E0,2.593248606E0,2.537912607E0,8.270136833E0,9.031118534E0
5.928112708E0,2.552525043E0,2.616964102E0,8.073705673E0,8.862765285E0
5.933147864E0,2.545338631E0,2.691224575E0,7.896438122E0,8.722108316E0
5.938184479E0,2.439936638E0,2.921192408E0,7.752708435E0,8.636616465E0
5.943221094E0,2.581271172E0,3.045758486E0,7.632933140E0,8.614016133E0
5.948257656E0,2.861544609E0,3.050549507E0,7.601791859E0,8.676492915E0
5.953294271E0,2.789679527E0,3.237398624E0,7.402965069E0,8.547921006E0
5.958330885E0,2.760933638E0,3.405083418E0,7.091550350E0,8.337111850E0
5.963377344E0,2.667509079E0,3.582350492E0,6.720247746E0,8.069112064E0
5.968413958E0,2.545338631E0,3.776386023E0,6.380086899E0,7.838708374E0
5.973450573E0,2.356094122E0,3.972816944E0,6.035134792E0,7.599822757E0
5.978487187E0,2.114148617E0,4.135711193E0,5.606340408E0,7.280438463E0
5.983523750E0,1.824293017E0,4.432753086E0,5.163172722E0,7.045260640E0
5.988560364E0,1.520064473E0,4.751354694E0,4.633767128E0,6.808653702E0
5.993580104E0,1.211045027E0,5.144216537E0,4.111548424E0,6.695851274E0
5.998616719E0,7.942280173E-1,5.529892445E0,3.495904684E0,6.590285134E0
6.003653281E0,4.253210425E-1,5.877239704E0,3.019200325E0,6.621058460E0
6.008689896E0,2.217035294E-1,6.159908772E0,2.619151831E0,6.697281899E0
6.013726510E0,5.880952254E-2,6.497674465E0,2.312527657E0,6.897174507E0
6.018763125E0,-2.022999674E-1,6.924073219E0,1.893315315E0,7.181111203E0
6.023793281E0,-4.634094536E-1,7.304957867E0,1.533990264E0,7.478655219E0
6.028829896E0,-5.568339825E-1,7.673864841E0,1.105195761E0,7.773012502E0
6.033866510E0,-6.119304895E-1,8.028398514E0,7.410797477E-1,8.085718324E0
6.038903125E0,-4.035219848E-1,8.282321930E0,3.098897338E-1,8.297934574E0
6.043939687E0,9.713752568E-2,8.490730286E0,-1.476507485E-1,8.492569530E0
6.048976302E0,7.870414853E-1,8.629669189E0,-7.297572494E-1,8.696158362E0
6.054017239E0,1.548810482E0,8.768608093E0,-1.328632236E0,9.002919827E0
6.059053854E0,2.327348232E0,8.945875168E0,-2.066446304E0,9.471823090E0
6.064090469E0,2.890290737E0,9.137515068E0,-2.782700777E0,9.979548375E0
6.069127083E0,3.170564175E0,9.360296249E0,-3.451045275E0,1.046791940E1
6.074163646E0,3.350226641E0,9.602241516E0,-4.004405499E0,1.092988216E1
6.079200312E0,3.496352196E0,9.870537758E0,-4.449968815E0,1.137779490E1
6.084228281E0,3.582590103E0,1.012446117E1,-4.897927284E0,1.180378573E1
6.089264844E0,3.685596704E0,1.032328701E1,-5.329117298E0,1.218824716E1
6.094301458E0,3.769439220E0,1.050534534E1,-5.729165554E0,1.254568814E1
6.099338073E0,3.867654562E0,1.070656681E1,-5.942365170E0,1.284137954E1
6.104374635E0,4.044921398E0,1.094372177E1,-5.992670536E0,1.311634612E1
6.109411250E0,4.346754551E0,1.115452576E1,-6.028603077E0,1.340379704E1
6.114471875E0,4.634214401E0,1.129586029E1,-6.028603077E0,1.361677120E1
6.119508489E0,4.952816010E0,1.143479919E1,-6.083699703E0,1.386709851E1
6.124545052E0,5.360051155E0,1.154499245E1,-6.052558422E0,1.409434150E1
6.129581719E0,5.755308628E0,1.164560318E1,-5.858522892E0,1.425012075E1
6.134618281E0,6.035582066E0,1.165518570E1,-5.499197960E0,1.423069860E1
6.139654896E0,6.320646763E0,1.158332062E1,-5.111126900E0,1.415088373E1
6.144663281E0,6.524264336E0,1.140605354E1,-4.677541256E0,1.394788424E1
6.149699948E0,6.653621197E0,1.127430058E1,-4.203232288E0,1.374946145E1
6.154736562E0,6.591338158E0,1.112098885E1,-3.807974815E0,1.347675049E1
6.159773177E0,6.435630798E0,1.101079559E1,-3.558842659E0,1.324085815E1
6.164809844E0,6.284714222E0,1.092695332E1,-3.314501762E0,1.303387370E1
6.169846458E0,6.129006386E0,1.083831978E1,-3.074951649E0,1.282533518E1
6.174906823E0,5.982881069E0,1.074249935E1,-2.864147663E0,1.262535148E1
6.179943489E0,5.872688293E0,1.070417213E1,-2.691671848E0,1.250251440E1
6.184980104E0,5.740935802E0,1.068740368E1,-2.612620354E0,1.240986408E1
6.190016719E0,5.613974094E0,1.057960606E1,-2.655739307E0,1.226775125E1
6.195053333E0,5.496594429E0,1.050774097E1,-2.710835695E0,1.216444824E1
6.200089948E0,5.419938564E0,1.048618126E1,-2.837797165E0,1.214037990E1
6.205130469E0,5.393588066E0,1.045264435E1,-2.909662247E0,1.211671162E1
6.210167135E0,5.460661888E0,1.038557053E1,-3.003086805E0,1.211187160E1
6.215203698E0,5.498990059E0,1.032807827E1,-3.098906755E0,1.210418587E1
6.220240312E0,5.520549774E0,1.024663162E1,-3.206704140E0,1.207281578E1
6.225276979E0,5.551691055E0,1.023465347E1,-3.314501762E0,1.210600377E1
6.230313594E0,5.573250771E0,1.020351219E1,-3.391157866E0,1.211085203E1
6.235345833E0,5.503781319E0,1.017476654E1,-3.453440666E0,1.207243701E1
6.240382448E0,5.357655525E0,1.022267628E1,-3.506141663E0,1.206236346E1
6.245419062E0,5.204343796E0,1.030172825E1,-3.659453869E0,1.210794788E1
6.250455729E0,5.041449547E0,1.038796616E1,-3.714550257E0,1.212946569E1
6.255492344E0,4.940838814E0,1.049336815E1,-3.819952250E0,1.221125294E1
6.260528958E0,5.223507404E0,1.042868900E1,-4.016383171E0,1.233587928E1
6.265549167E0,5.259439945E0,1.055804634E1,-4.083456993E0,1.248233440E1
6.270585833E0,5.233089447E0,1.070896244E1,-4.289470196E0,1.266754342E1
6.275622448E0,5.197156906E0,1.072094059E1,-4.483505726E0,1.272991872E1
6.280659062E0,5.156433582E0,1.070656681E1,-4.629631042E0,1.275354318E1
6.285695677E0,5.122896671E0,1.072573090E1,-4.735033035E0,1.279476109E1
6.290732344E0,5.156433582E0,1.079280567E1,-4.873972416E0,1.291623276E1
6.295783906E0,5.415147781E0,1.078322315E1,-5.041657448E0,1.307746294E1
6.300820573E0,5.810405254E0,1.082155132E1,-5.156641483E0,1.332132627E1
6.305857187E0,6.081096649E0,1.086466980E1,-5.209342480E0,1.349659347E1
6.310893750E0,6.275132179E0,1.084550667E1,-5.305162430E0,1.360687500E1
6.315930417E0,6.500308990E0,1.080957413E1,-5.199760437E0,1.364325542E1
6.320967031E0,6.790164471E0,1.075208187E1,-5.046448231E0,1.368138289E1
6.326006510E0,7.060856342E0,1.056044197E1,-4.725451469E0,1.355391156E1
6.331043177E0,7.405807972E0,1.037119770E1,-4.356544495E0,1.346800703E1
6.336079792E0,7.647753716E0,1.019393063E1,-3.961286783E0,1.334526701E1
6.341116406E0,7.710036755E0,1.000947666E1,-3.549260855E0,1.312370155E1
6.346153021E0,7.702850342E0,9.801068306E0,-3.029437304E0,1.282857489E1
6.351189635E0,7.602239132E0,9.654942513E0,-2.375465870E0,1.251618124E1
6.356225156E0,7.448926926E0,9.489653587E0,-1.747844815E0,1.218995484E1
6.361261771E0,7.317174435E0,9.360296249E0,-1.117828250E0,1.193338710E1
6.366298385E0,7.228540897E0,9.185424805E0,-6.195642352E-1,1.170502850E1
6.371335052E0,7.187817574E0,9.034508705E0,-9.494974464E-2,1.154539235E1
6.376371667E0,7.111161709E0,8.909942627E0,4.105007648E-1,1.140719989E1
6.381408281E0,6.830888271E0,8.845263481E0,9.518837929E-1,1.121631862E1
6.386463073E0,6.543427944E0,8.747048378E0,1.440565705E0,1.101828181E1
6.391499739E0,6.306273460E0,8.699138641E0,1.929247856E0,1.091632243E1
6.396536302E0,6.114633560E0,8.639250755E0,2.391579151E0,1.085103903E1
6.401572969E0,6.014022827E0,8.512289047E0,2.868283749E0,1.080993002E1
6.406609583E0,5.954134941E0,8.450006485E0,3.268332243E0,1.084141726E1
6.411646198E0,5.911015987E0,8.366164207E0,3.610888720E0,1.086146081E1
6.416641042E0,5.992463112E0,8.188897133E0,3.951049805E0,1.088937303E1
6.421677708E0,6.071514606E0,8.105054855E0,4.272046566E0,1.099115943E1
6.426714323E0,5.946948528E0,8.076308250E0,4.497223854E0,1.099172298E1
6.431750937E0,5.640324593E0,8.047562599E0,4.660117626E0,1.087626873E1
6.436787552E0,5.221112251E0,8.047562599E0,4.698445797E0,1.068169789E1
6.441824219E0,4.742012024E0,7.997257233E0,4.576275349E0,1.036267810E1
6.446851562E0,4.351545811E0,7.882273197E0,4.358284950E0,1.000304101E1
6.451888229E0,4.246143818E0,7.630745888E0,4.171435833E0,9.677752685E0
6.456924844E0,3.747879505E0,7.738543034E0,4.075615883E0,9.515371453E0
6.461961458E0,3.376577139E0,7.889459610E0,3.658798695E0,9.329075731E0
6.466998125E0,3.069953203E0,7.978093147E0,3.213235855E0,9.132330896E0
6.472034739E0,2.624390125E0,8.100263596E0,2.705389738E0,8.934250247E0
6.477106198E0,2.245901108E0,8.246389389E0,2.204730272E0,8.826542093E0
6.482142812E0,1.764405489E0,8.507498741E0,1.617832780E0,8.837875563E0
6.487179427E0,1.108038545E0,8.775794983E0,1.026144266E0,8.904790792E0
6.492216094E0,3.822020292E-1,9.082418442E0,6.141182184E-1,9.111176890E0
6.497252708E0,-2.286504954E-1,9.240521431E0,4.224782586E-1,9.252999797E0
6.502289323E0,-4.514319599E-1,9.240521431E0,3.577997684E-1,9.258458176E0
6.507293489E0,-5.616250038E-1,9.195006371E0,3.050987124E-1,9.217193175E0
6.512330156E0,-6.526539922E-1,9.075231552E0,1.254362613E-1,9.099534011E0
6.517366771E0,-7.580559850E-1,8.938688278E0,-1.045317426E-1,8.971383611E0
6.522403385E0,-8.778309822E-1,8.771003723E0,-2.410752475E-1,8.818118326E0
6.527440052E0,-1.064679980E0,8.665601730E0,-3.776187599E-1,8.738924003E0
6.532476667E0,-1.110194445E0,8.507498741E0,-4.686477482E-1,8.592420919E0
6.537528906E0,-9.377185106E-1,8.251179695E0,-3.033582568E-1,8.309832044E0
6.542565573E0,-6.837955117E-1,7.927787781E0,9.908576310E-2,7.957839744E0
6.547602187E0,-4.586184919E-1,7.657096386E0,4.871567488E-1,7.686272028E0
6.552638802E0,-3.651939631E-1,7.554089546E0,7.267067432E-1,7.597745599E0
6.557675417E0,-2.166729718E-1,7.475038052E0,9.423017502E-1,7.537312096E0
6.562712083E0,6.839152426E-2,7.355263233E0,1.373491764E0,7.482717037E0
6.567764062E0,3.941795230E-1,7.201951027E0,1.876546860E0,7.452845377E0
6.572800677E0,7.990189791E-1,7.065407753E0,2.278990746E0,7.466740712E0
6.577837292E0,1.215836048E0,6.919282436E0,2.595196724E0,7.489310567E0
6.582873958E0,1.572765470E0,6.825857639E0,2.789232254E0,7.539611416E0
6.587910573E0,1.855434537E0,6.660568237E0,2.942544222E0,7.514277947E0
6.592947187E0,1.932090521E0,6.444973469E0,3.019200325E0,7.374701851E0
6.597986042E0,2.015933037E0,6.207818985E0,2.990454197E0,7.179402403E0
6.603022708E0,2.039888144E0,6.092834949E0,2.978476763E0,7.082026912E0
6.608059271E0,2.090193510E0,6.088043690E0,2.932962179E0,7.073574204E0
6.613095885E0,2.193200111E0,6.016178608E0,2.870679140E0,7.017501728E0
6.618132552E0,2.339325666E0,5.932336330E0,2.892238855E0,7.002149992E0
6.623169167E0,2.478264570E0,5.814956665E0,3.112624645E0,7.045846186E0
6.628225937E0,2.638763189E0,5.573011398E0,3.383316278E0,7.033374457E0
6.633262604E0,2.784888506E0,5.283155918E0,3.663589716E0,7.006370676E0
6.638299219E0,3.029229641E0,5.034023762E0,3.905535221E0,7.054844634E0
6.643335833E0,3.321480513E0,4.748959064E0,4.250487328E0,7.186896932E0
6.648372448E0,3.642477512E0,4.499826908E0,4.631371975E0,7.413885014E0
6.653409062E0,4.152719021E0,4.303396225E0,5.081725597E0,7.847816855E0
6.658467604E0,4.720452785E0,4.083010197E0,5.462610245E0,8.294200230E0
6.663504271E0,5.120501041E0,3.881788015E0,5.752465725E0,8.624306988E0
6.668540833E0,5.475035191E0,3.678170443E0,6.030343533E0,8.937001246E0
6.673577500E0,5.808009624E0,3.433829546E0,6.370504856E0,9.279412334E0
6.678614114E0,6.057141781E0,3.239794016E0,6.717852116E0,9.608057497E0
6.683650729E0,6.289505005E0,3.131996393E0,7.074781895E0,9.970948474E0
6.688677187E0,6.488331795E0,3.050549507E0,7.453270912E0,1.034193159E1
6.693713802E0,6.677576065E0,3.028990030E0,7.829364300E0,1.072677715E1
6.698750417E0,6.895566463E0,3.005034924E0,8.126406670E0,1.107328123E1
6.703787031E0,7.094393253E0,2.973893404E0,8.421052933E0,1.140563852E1
6.708823646E0,7.238122940E0,2.935565472E0,8.598320007E0,1.161632796E1
6.713860312E0,7.283637524E0,3.021803617E0,8.677371979E0,1.172516342E1
6.718871875E0,7.309988022E0,3.017012596E0,8.713304520E0,1.176690127E1
6.723908542E0,7.343524933E0,3.028990030E0,8.646229744E0,1.174135545E1
6.728945104E0,7.317174435E0,3.028990030E0,8.471358299E0,1.159653973E1
6.733981771E0,7.331547737E0,2.921192408E0,8.262949944E0,1.142634233E1
6.739018385E0,7.333942890E0,2.868491411E0,8.001840591E0,1.122695035E1
6.744055000E0,7.348316193E0,2.825372458E0,7.740730762E0,1.104080582E1
6.749078750E0,7.302801609E0,2.770276070E0,7.393383026E0,1.075488045E1
6.754115417E0,7.259682655E0,2.751111984E0,7.058013439E0,1.049224300E1
6.759152031E0,7.159071445E0,2.705597639E0,6.825649738E0,1.025485528E1
6.764188594E0,6.988991261E0,2.652896643E0,6.600472927E0,9.972467212E0
6.769225260E0,6.888380051E0,2.655292034E0,6.528607845E0,9.855104054E0
6.774261875E0,6.799746513E0,2.712784052E0,6.461533546E0,9.764587330E0
6.779340989E0,6.778187275E0,2.741530180E0,6.365713596E0,9.694437583E0
6.784377656E0,6.792560101E0,2.789439917E0,6.231565952E0,9.630797578E0
6.789414271E0,6.921916962E0,2.755903006E0,6.030343533E0,9.585039328E0
6.794450885E0,7.156676292E0,2.609777689E0,5.663832188E0,9.492520750E0
6.799487552E0,7.094393253E0,2.743925571E0,5.953687668E0,9.659499988E0
6.804524114E0,7.060856342E0,2.767880678E0,5.939314842E0,9.632876856E0
6.809635417E0,7.024923801E0,2.818186045E0,5.970456123E0,9.640439477E0
6.814672031E0,6.941081047E0,2.866096020E0,5.797980309E0,9.487343577E0
6.819708646E0,6.885984421E0,2.822977066E0,5.608735561E0,9.319007219E0
6.824745260E0,6.874007225E0,2.808604002E0,5.575198650E0,9.285637930E0
6.829781927E0,6.869215965E0,2.822977066E0,5.594362736E0,9.297968698E0
6.834818542E0,6.914730549E0,2.746320963E0,5.651854515E0,9.343406063E0
6.839742448E0,6.950663090E0,2.705597639E0,5.754861355E0,9.420743346E0
6.844779114E0,7.039296627E0,2.604986668E0,5.886613846E0,9.538861311E0
6.849815729E0,7.163862705E0,2.487607002E0,5.994411469E0,9.666544693E0
6.854852344E0,7.245309830E0,2.430114985E0,6.118977070E0,9.789885278E0
6.859888958E0,7.338734150E0,2.365436554E0,6.217192650E0,9.904836872E0
6.864925625E0,7.504023552E0,2.370227575E0,6.444765091E0,1.017169334E1
6.869965312E0,7.690872669E0,2.336690664E0,6.806485653E0,1.053270585E1
6.875001979E0,7.968750477E0,2.260034561E0,7.247257710E0,1.100597495E1
6.880038594E0,8.342448235E0,2.212124586E0,7.585023403E0,1.149010521E1
6.885075208E0,8.680213928E0,2.185774088E0,7.697611809E0,1.180580153E1
6.890111823E0,8.898203850E0,2.188169479E0,7.762290478E0,1.200913281E1
6.895148437E0,9.092239380E0,2.054021597E0,7.644910812E0,1.205539228E1
6.900155677E0,9.104217529E0,1.843217492E0,7.493994236E0,1.193499800E1
6.905192344E0,8.984441757E0,1.965388060E0,7.441293240E0,1.183029116E1
6.910228958E0,8.538879395E0,2.336690664E0,7.747917175E0,1.176447216E1
6.915265573E0,8.026242256E0,2.535516977E0,7.968303204E0,1.159065430E1
6.920302187E0,7.729200840E0,2.698410988E0,7.688029766E0,1.123066201E1
6.925338802E0,7.611821175E0,2.808604002E0,7.172997475E0,1.082958775E1
6.930388333E0,7.587866306E0,2.794230938E0,6.756180286E0,1.053704957E1
6.935424948E0,7.420181274E0,2.777462482E0,6.444765091E0,1.021314766E1
6.940461562E0,7.139907837E0,2.827768087E0,6.099813461E0,9.807256525E0
6.945498177E0,6.794955730E0,2.899632931E0,5.623108864E0,9.284322690E0
6.950534792E0,6.394906998E0,3.021803617E0,5.048188686E0,8.689668672E0
6.955571406E0,5.925389290E0,3.182301998E0,4.470873356E0,8.076261066E0
6.960607864E0,5.498990059E0,3.354778051E0,3.898348808E0,7.529312776E0
6.965644531E0,5.149247169E0,3.567977428E0,3.531837225E0,7.191598120E0
6.970681146E0,4.993539810E0,3.692543507E0,3.371338844E0,7.066558072E0
6.975717760E0,4.950420856E0,3.797945499E0,3.383316278E0,7.097738070E0
6.980754427E0,4.988748550E0,3.922511578E0,3.572560787E0,7.282643734E0
6.985791042E0,5.034263134E0,3.989585400E0,3.733059168E0,7.429423108E0
6.990808750E0,4.976771355E0,4.099778652E0,3.802528858E0,7.485697284E0
6.995845364E0,4.797108650E0,4.207576275E0,3.843252182E0,7.448928570E0
7.000881979E0,4.385082722E0,4.269859314E0,3.876789093E0,7.245008123E0
7.005918594E0,3.867654562E0,4.368074417E0,3.809715271E0,6.967980796E0
7.010955208E0,3.266384125E0,4.483058453E0,3.625261784E0,6.626432022E0
7.015991823E0,2.629181147E0,4.645952702E0,3.299473763E0,6.275667065E0
7.021049896E0,2.025515079E0,4.806451321E0,2.882656813E0,5.959395601E0
7.026086510E0,1.524855494E0,4.974136353E0,2.496981144E0,5.770799907E0
7.031123125E0,1.172716975E0,5.168171883E0,2.077768803E0,5.692309629E0
7.036159739E0,9.068164825E-1,5.343043327E0,1.545967698E0,5.635640536E0
7.041196406E0,7.175720334E-1,5.481982231E0,1.081240773E0,5.633482086E0
7.046232969E0,4.852085412E-1,5.685599804E0,7.386842370E-1,5.753879288E0
7.051252344E0,2.552405298E-1,5.870053291E0,4.727837443E-1,5.894590557E0
7.056288958E0,1.808601990E-2,5.997014523E0,3.386357427E-1,6.006595080E0
7.061325573E0,-1.591809839E-1,6.042529106E0,3.745682240E-1,6.056219773E0
7.066362187E0,-2.789559662E-1,6.028156281E0,6.045362353E-1,6.064812333E0
7.071398802E0,-5.041329861E-1,5.982641697E0,1.109986782E0,6.105589439E0
7.076435469E0,-8.778309822E-1,5.920358658E0,1.740003228E0,6.232884172E0
7.081472604E0,-1.390468001E0,5.905985832E0,2.183170795E0,6.448279200E0
7.086509271E0,-2.097140312E0,5.992223740E0,2.518540859E0,6.829918806E0
7.091545885E0,-2.813394785E0,6.097625732E0,2.820373774E0,7.283593757E0
7.096582500E0,-3.481739283E0,6.231773853E0,2.942544222E0,7.721145011E0
7.101619114E0,-4.063846111E0,6.351548672E0,2.990454197E0,8.111709564E0
7.106655781E0,-4.483058453E0,6.447368622E0,3.067110300E0,8.430512489E0
7.111779739E0,-4.756145477E0,6.461741924E0,3.100647211E0,8.601688301E0
7.116816406E0,-4.957367420E0,6.454555035E0,3.081483126E0,8.702431309E0
7.121853021E0,-5.065165043E0,6.444973469E0,3.093460798E0,8.761454196E0
7.126889635E0,-5.175357819E0,6.389876842E0,3.035968781E0,8.765384250E0
7.131926250E0,-5.398139477E0,6.430600166E0,3.026386738E0,8.924771425E0
7.136962864E0,-5.707159042E0,6.536002159E0,3.100647211E0,9.214391010E0
7.141945937E0,-6.035342216E0,6.691709518E0,3.292287350E0,9.593929744E0
7.146982604E0,-6.358735085E0,6.806693554E0,3.457576752E0,9.935764994E0
7.152019219E0,-6.636612892E0,6.890536308E0,3.610888720E0,1.022558745E1
7.157055833E0,-6.933654785E0,7.019893169E0,3.800133228E0,1.057333823E1
7.162092448E0,-7.216323853E0,7.108526707E0,3.922303677E0,1.086236383E1
7.167129062E0,-7.475038052E0,7.211533070E0,4.082802296E0,1.116027229E1
7.172176302E0,-7.695424080E0,7.285793781E0,4.202577114E0,1.140017531E1
7.177212969E0,-7.781661987E0,7.276211739E0,4.219345570E0,1.145863856E1
7.182249635E0,-7.752915859E0,7.302562237E0,4.169040203E0,1.143748293E1
7.187286302E0,-7.681050777E0,7.328912735E0,4.161853790E0,1.140318069E1
7.192322969E0,-7.498992920E0,7.343285561E0,4.204972744E0,1.130665881E1
7.197359635E0,-7.326517105E0,7.388800144E0,4.183413029E0,1.121486358E1
7.202386250E0,-7.233092308E0,7.448687553E0,4.161853790E0,1.118577657E1
7.207422969E0,-7.168413639E0,7.498993397E0,4.219345570E0,1.119928270E1
7.212459583E0,-7.036661148E0,7.534925938E0,4.360680103E0,1.119398231E1
7.217496302E0,-6.916886330E0,7.654700756E0,4.446918011E0,1.123444881E1
7.222532969E0,-6.727642059E0,7.772080421E0,4.473268509E0,1.121055453E1
7.227569635E0,-6.533606529E0,7.946951866E0,4.456500053E0,1.121171044E1
7.232583229E0,-6.270101547E0,8.258366585E0,4.463686943E0,1.128890133E1
7.237619948E0,-5.987432480E0,8.567385674E0,4.442127228E0,1.135702159E1
7.242656562E0,-5.917963028E0,8.684765816E0,4.600230217E0,1.147212106E1
7.247693281E0,-6.114393711E0,8.543431282E0,4.667304039E0,1.149607566E1
7.252729948E0,-6.054506302E0,8.337417603E0,4.466082096E0,1.123011434E1
7.257766614E0,-6.238959789E0,8.107450485E0,4.125921249E0,1.103080227E1
7.262822396E0,-6.461741447E0,7.899041653E0,3.747432232E0,1.087162407E1
7.267859062E0,-6.662963390E0,7.637932301E0,3.378525257E0,1.068398446E1
7.272895729E0,-6.674941063E0,7.453478813E0,3.062319279E0,1.046360282E1
7.277932396E0,-6.770761013E0,7.333703518E0,2.887447834E0,1.039056144E1
7.282969062E0,-6.981564999E0,7.312144279E0,2.695807695E0,1.046312969E1
7.288005729E0,-7.290584564E0,7.240279198E0,2.580823660E0,1.059409821E1
7.293035573E0,-7.539716244E0,7.142063618E0,2.422720671E0,1.066423786E1
7.298072292E0,-7.573253155E0,7.074989796E0,2.413138628E0,1.064109402E1
7.303108958E0,-7.554089546E0,7.058221340E0,2.362833261E0,1.060498649E1
7.308145573E0,-7.510970592E0,7.149250031E0,2.178379774E0,1.059583851E1
7.313182239E0,-7.292979717E0,7.292980194E0,2.106514692E0,1.052675246E1
7.318218958E0,-7.156436443E0,7.247465611E0,2.025067806E0,1.038466369E1
7.323260573E0,-7.204346180E0,7.137272835E0,1.902897358E0,1.031815321E1
7.328297239E0,-7.213928223E0,7.046243668E0,1.977157831E0,1.027615995E1
7.333333906E0,-7.316935062E0,6.940841675E0,2.140051842E0,1.030983238E1
7.338370573E0,-7.285793304E0,6.842626095E0,2.286177158E0,1.025333711E1
7.343407239E0,-7.199555397E0,6.785134315E0,2.616756201E0,1.023323305E1
7.348443906E0,-7.247465611E0,6.540793419E0,2.856306314E0,1.017183475E1
7.353505052E0,-7.470246792E0,6.361130714E0,2.889843225E0,1.022838037E1
7.358541719E0,-7.355262756E0,6.174281597E0,2.738926649E0,9.986158553E0
7.363578385E0,-7.051034451E0,6.042529106E0,2.868283749E0,9.718862921E0
7.368615052E0,-6.739619255E0,5.946709156E0,3.297078133E0,9.573742304E0
7.373651719E0,-6.789925098E0,5.846098423E0,3.716290712E0,9.700039498E0
7.378688385E0,-6.993542194E0,5.676017761E0,4.099570751E0,9.896125019E0
7.383734792E0,-7.419941425E0,5.446049690E0,4.478059769E0,1.023562442E1
7.388771406E0,-7.539716244E0,5.211290836E0,4.578670979E0,1.024544295E1
7.393808125E0,-7.487015247E0,4.974136353E0,4.612207890E0,1.010296448E1
7.398844792E0,-7.601999283E0,4.598042488E0,4.655326843E0,1.003017726E1
7.403881458E0,-7.700214863E0,4.200389862E0,4.703236580E0,9.952739234E0
7.408918125E0,-7.831967354E0,3.929697990E0,4.748751163E0,9.966588009E0
7.413908958E0,-7.884668350E0,3.833878040E0,5.057770729E0,1.012164318E1
7.418945625E0,-7.927787304E0,3.785968065E0,5.594362736E0,1.041538574E1
7.423982292E0,-8.064331055E0,3.726080418E0,6.047112465E0,1.074637985E1
7.429018958E0,-8.318254471E0,3.606305599E0,6.404041767E0,1.110002471E1
7.434055625E0,-8.500312805E0,3.455389023E0,6.665151119E0,1.134104363E1
7.439092292E0,-8.495521545E0,3.431433916E0,6.859186649E0,1.144539499E1
7.444115000E0,-8.339814186E0,3.405083418E0,6.978961945E0,1.139530621E1
7.449151667E0,-8.313463211E0,3.366755486E0,7.022080898E0,1.139115153E1
7.454188333E0,-8.421260834E0,3.318845510E0,7.290376663E0,1.162247656E1
7.459225052E0,-8.306277275E0,3.282912970E0,7.450875282E0,1.163130699E1
7.464261719E0,-8.138591766E0,3.261353493E0,7.575441360E0,1.158707963E1
7.469298333E0,-8.057145119E0,3.258958101E0,7.680843353E0,1.159886848E1
7.474347552E0,-8.157755852E0,3.211048126E0,7.838945866E0,1.176047970E1
7.479384219E0,-8.366164207E0,3.163137913E0,8.155152321E0,1.210391071E1
7.484420885E0,-8.603319168E0,3.100855112E0,8.437821388E0,1.244303954E1
7.489457604E0,-8.854846001E0,2.961915970E0,8.674976349E0,1.274505624E1
7.494494271E0,-9.321969032E0,2.631337166E0,8.823496819E0,1.310256227E1
7.499530885E0,-9.942403793E0,2.283989668E0,8.447403908E0,1.324487202E1
7.504559948E0,-1.039754868E1,2.099536180E0,7.896438122E0,1.322387257E1
7.509596614E0,-1.051732349E1,2.046835184E0,7.311936378E0,1.297181720E1
7.514633281E0,-1.030172825E1,2.118700027E0,6.643591881E0,1.243992797E1
7.519669948E0,-9.659734726E0,2.360645533E0,6.183655739E0,1.170985570E1
7.524706614E0,-8.629669189E0,2.846931934E0,6.135745525E0,1.096465161E1
7.529743333E0,-8.140987396E0,3.211048126E0,6.286662102E0,1.077537128E1
7.534807604E0,-8.069122314E0,3.349987030E0,6.432787895E0,1.084960405E1
7.539844271E0,-7.848735809E0,3.642237902E0,6.497466087E0,1.082061072E1
7.544880937E0,-7.465456009E0,3.831482410E0,6.471115589E0,1.059663285E1
7.549917604E0,-7.170809269E0,3.867414951E0,6.396855354E0,1.035843436E1
7.554954271E0,-7.077384949E0,3.841064453E0,6.404041767E0,1.028858128E1
7.559990937E0,-7.182786942E0,3.735662460E0,6.669942379E0,1.048979188E1
7.565020781E0,-7.084571362E0,3.783572435E0,7.132273674E0,1.074131740E1
7.570057448E0,-6.607866764E0,3.987190008E0,7.683238506E0,1.089007536E1
7.575094114E0,-6.107207298E0,4.102174282E0,8.090474129E0,1.093533660E1
7.580130781E0,-5.745486736E0,4.166852474E0,8.464172363E0,1.104606225E1
7.585167448E0,-5.558638096E0,4.193202972E0,8.866616249E0,1.127378784E1
7.590204114E0,-4.921434879E0,4.214762688E0,9.386439323E0,1.140569985E1
7.595243646E0,-5.184939861E0,4.267463684E0,9.798465729E0,1.187875323E1
7.600280312E0,-5.429280758E0,4.207576275E0,9.901472092E0,1.205072352E1
7.605316979E0,-5.283155441E0,4.140501976E0,1.002124691E1,1.206154541E1
7.610353646E0,-5.024441242E0,4.092592239E0,1.003322506E1,1.194403308E1
7.615390312E0,-4.909457207E0,4.051868439E0,9.966150284E0,1.182558918E1
7.620426979E0,-4.983717918E0,3.989585400E0,9.920636177E0,1.179717161E1
7.625470364E0,-5.137029648E0,3.946466446E0,9.779301643E0,1.173023494E1
7.630507031E0,-5.244827271E0,3.984794617E0,9.594848633E0,1.163820955E1
7.635543646E0,-5.208894730E0,4.224344730E0,9.419977188E0,1.156346155E1
7.640580312E0,-5.036418915E0,4.394424915E0,9.348112106E0,1.149189653E1
7.645616979E0,-4.722608566E0,4.514200211E0,9.352902412E0,1.140867296E1
7.650653698E0,-4.468685150E0,4.581274033E0,9.328948021E0,1.131311142E1
7.655666823E0,-4.348910332E0,4.583669662E0,9.302597046E0,1.124550401E1
7.660703489E0,-4.298604965E0,4.550132751E0,9.331343651E0,1.123635559E1
7.665740156E0,-4.348910332E0,4.545341492E0,9.623594284E0,1.149724825E1
7.670776875E0,-4.583669186E0,4.562109947E0,9.970941544E0,1.188455071E1
7.675813489E0,-4.554923534E0,4.521386623E0,9.870330811E0,1.177343177E1
7.680850208E0,-4.166852474E0,4.526177406E0,9.561310768E0,1.136959124E1
7.685904739E0,-3.589536905E0,4.557319164E0,9.458304405E0,1.109565029E1
7.690941406E0,-3.184697390E0,4.576483250E0,9.470282555E0,1.098966551E1
7.695978073E0,-2.935565472E0,4.645952702E0,9.518192291E0,1.099083280E1
7.701014739E0,-2.554680824E0,4.851965904E0,9.331343651E0,1.082321309E1
7.706051406E0,-1.960596919E0,5.156194210E0,8.878593445E0,1.045273651E1
7.711088073E0,-1.047911525E0,5.438863277E0,8.243785858E0,9.931734873E0
7.716089062E0,-2.981199622E-1,5.831725121E0,7.503576279E0,9.507972989E0
7.721125729E0,-7.054746896E-2,6.289265633E0,6.981357098E0,9.396764660E0
7.726162396E0,-7.773397118E-2,6.701291561E0,6.531003475E0,9.357743187E0
7.731199062E0,-4.226859510E-1,7.230697155E0,6.329781055E0,9.619135770E0
7.736235781E0,-4.897599518E-1,7.772080421E0,6.392064095E0,1.007489862E1
7.741272396E0,3.725002334E-2,7.990070820E0,6.813672066E0,1.050089264E1
7.746344010E0,-2.765604556E-1,7.724170208E0,7.091550350E0,1.048948890E1
7.751380677E0,-1.000001550E0,7.223510742E0,6.983752728E0,1.009712398E1
7.756417344E0,-1.414422989E0,6.897722721E0,6.868768692E0,9.836623123E0
7.761454010E0,-1.584503531E0,6.624635696E0,6.875955105E0,9.678595361E0
7.766490677E0,-1.802494049E0,6.653381824E0,7.093945980E0,9.891437917E0
7.771527344E0,-2.128281832E0,7.005520344E0,7.319122791E0,1.035260630E1
7.776553177E0,-2.286384821E0,7.384009361E0,7.558672905E0,1.081132212E1
7.781589844E0,-2.315130949E0,7.563671589E0,7.716775894E0,1.105068276E1
7.786626510E0,-2.281593800E0,7.640327930E0,7.769476891E0,1.113306123E1
7.791663229E0,-2.068394423E0,7.702610970E0,7.649701595E0,1.105108165E1
7.796699844E0,-1.613249540E0,7.678655624E0,7.422129154E0,1.080057070E1
7.801736562E0,-6.718180180E-1,7.427128315E0,7.187370300E0,1.035721325E1
7.806776719E0,-9.210697562E-2,7.520552635E0,7.072386265E0,1.032404199E1
7.811813385E0,2.648225129E-1,7.719379425E0,7.065199852E0,1.046785549E1
7.816850052E0,4.253210425E-1,7.913414955E0,6.976566315E0,1.055819643E1
7.821886719E0,3.965750337E-1,7.949347019E0,7.069990635E0,1.064585165E1
7.826923385E0,4.852085412E-1,7.750520706E0,7.218511581E0,1.060249537E1
7.831960052E0,2.911730409E-1,7.793639660E0,7.608978271E0,1.089596949E1
7.837001458E0,-8.492047340E-2,7.853527069E0,7.968303204E0,1.118834013E1
7.842038125E0,-1.927179843E-1,7.834363461E0,7.989862919E0,1.119161742E1
7.847074792E0,-2.118819803E-1,7.846340656E0,7.925183773E0,1.115430381E1
7.852111458E0,-5.868974607E-3,7.851131916E0,7.817387104E0,1.107934330E1
7.857148125E0,1.618160307E-1,7.834363461E0,7.726357937E0,1.100454643E1
7.862184792E0,3.318965137E-1,7.788848877E0,7.652097225E0,1.092386901E1
7.867224479E0,5.642600060E-1,7.716983795E0,7.517949104E0,1.078840985E1
7.872261146E0,8.062055111E-1,7.649909973E0,7.311936378E0,1.061298749E1
7.877297812E0,1.014613986E0,7.606790543E0,7.175392628E0,1.050613931E1
7.882334479E0,1.232604504E0,7.587626934E0,7.091550350E0,1.045856026E1
7.887371146E0,1.457781553E0,7.661887169E0,6.971775055E0,1.046113232E1
7.892407812E0,1.656607985E0,7.630745888E0,6.835231781E0,1.037752506E1
7.897456042E0,1.855434537E0,7.494202137E0,6.588495255E0,1.014957993E1
7.902492708E0,2.229132652E0,7.669073582E0,6.324990273E0,1.018769964E1
7.907529375E0,2.406399727E0,7.714588165E0,5.917755127E0,1.001625958E1
7.912566042E0,2.423168182E0,7.623559475E0,5.465005875E0,9.687966366E0
7.917602708E0,1.956045508E0,7.376822948E0,5.055375099E0,9.154258476E0
7.922639375E0,1.266141534E0,7.199555874E0,4.808638573E0,8.749841375E0
7.927636510E0,7.726684809E-1,7.388800144E0,4.794265747E0,8.841740112E0
7.932673229E0,2.791955173E-1,7.590022087E0,4.739169121E0,8.952435946E0
7.937709896E0,-5.868974607E-3,7.681051254E0,4.523574352E0,8.914107232E0
7.942746562E0,1.737935245E-1,7.954138279E0,4.250487328E0,9.020263991E0
7.947783229E0,-1.545098051E-2,7.944556236E0,3.869602680E0,8.836856762E0
7.952819896E0,1.329502091E-2,7.815199375E0,3.436017275E0,8.537197007E0
7.957883177E0,4.588580430E-1,7.757707119E0,3.012013674E0,8.334554386E0
7.962919844E0,1.141575456E0,7.786453247E0,2.698203325E0,8.319396004E0
7.967956510E0,1.656607985E0,7.726565838E0,2.398765802E0,8.258222995E0
7.972993177E0,2.207573175E0,7.645118713E0,2.001112700E0,8.205222209E0
7.978029844E0,3.074744225E0,7.822385788E0,1.783122301E0,8.592048452E0
7.983066510E0,3.137027025E0,7.714588165E0,1.562736273E0,8.473367322E0
7.988099479E0,2.820821047E0,7.439105988E0,1.227366209E0,8.050078079E0
7.993136146E0,2.708232641E0,7.194764614E0,1.028539777E0,7.756097986E0
7.998172812E0,2.868731022E0,7.089362621E0,9.111602306E-1,7.701875941E0
8.003209479E0,3.137027025E0,7.058221340E0,1.153105736E0,7.809550556E0
8.008246146E0,3.283152580E0,6.983960629E0,1.622623801E0,7.885918141E0
8.013282812E0,3.125049591E0,6.866581440E0,2.334087133E0,7.897077837E0
8.018321823E0,2.804052591E0,6.768365860E0,3.189280748E0,7.990306567E0
8.023358489E0,2.550129652E0,6.770761013E0,3.986982346E0,8.260895482E0
8.028395156E0,2.413586140E0,6.864185810E0,4.691259384E0,8.657387568E0
8.033431823E0,2.332139015E0,6.950423717E0,5.223060131E0,9.001534279E0
8.038468489E0,2.286624670E0,7.027079582E0,5.697369099E0,9.331051092E0
8.043505156E0,2.231528044E0,7.031870842E0,6.087835789E0,9.564970964E0
8.048535677E0,2.221946239E0,6.974378586E0,6.214797020E0,9.602223896E0
8.053572396E0,2.265065193E0,6.871372223E0,6.277080059E0,9.578518185E0
8.058609010E0,2.356094122E0,6.845021725E0,6.245938778E0,9.561237009E0
8.063645677E0,2.540547609E0,6.890536308E0,6.133350372E0,9.568273594E0
8.068682344E0,2.823216677E0,6.957610130E0,5.932128429E0,9.569171272E0
8.073719062E0,3.007670164E0,7.065407753E0,5.762047768E0,9.600378170E0
8.078773489E0,3.103490114E0,7.051034927E0,5.335648537E0,9.371119983E0
8.083810156E0,3.216078520E0,7.063012123E0,5.007465363E0,9.236017034E0
8.088846771E0,3.158586740E0,6.964796543E0,4.736773968E0,8.995670553E0
8.093883489E0,3.129840612E0,6.916886806E0,4.573879719E0,8.863385416E0
8.098920104E0,3.256802082E0,6.928864479E0,4.365471363E0,8.813243614E0
8.103956823E0,3.352622032E0,6.883349895E0,4.106757164E0,8.688269947E0
8.109051042E0,3.213683128E0,6.842626095E0,3.857625008E0,8.487082056E0
8.114087656E0,3.086721659E0,6.758783817E0,3.737850189E0,8.317483593E0
8.119124323E0,3.072348595E0,6.725246906E0,3.831274509E0,8.327480784E0
8.124160989E0,3.204101086E0,6.943237305E0,4.161853790E0,8.706080347E0
8.129197708E0,3.117863178E0,7.039057255E0,4.648140430E0,8.993031041E0
8.134234323E0,2.914245605E0,6.833044052E0,4.894876957E0,8.896242965E0
8.139180104E0,2.763329029E0,6.468928337E0,4.928413868E0,8.589079369E0
8.144216771E0,2.928618670E0,6.639008522E0,5.249410629E0,8.955978641E0
8.149253437E0,3.067557573E0,6.938446045E0,5.968060970E0,9.652445013E0
8.154290104E0,3.034020662E0,7.012706757E0,6.157305241E0,9.813039553E0
8.159326771E0,2.871126652E0,6.818671227E0,6.011179924E0,9.532676939E0
8.164363437E0,2.576480150E0,6.346757889E0,5.599153519E0,8.847039380E0
8.169438698E0,2.277042627E0,6.008992195E0,5.211082935E0,8.273348517E0
8.174475364E0,2.816030025E0,6.167095184E0,5.263783932E0,8.583152649E0
8.179512031E0,3.029229641E0,6.226982594E0,5.429073334E0,8.799226199E0
8.184548698E0,2.971737623E0,6.143140316E0,5.285343170E0,8.631584436E0
8.189585364E0,2.887895107E0,5.896403790E0,4.993092060E0,8.248544364E0
8.194622031E0,3.081930637E0,6.200632095E0,5.278156757E0,8.706610913E0
8.199621302E0,3.120258570E0,6.339571476E0,5.685391903E0,9.069170917E0
8.204657917E0,3.000483513E0,6.116789818E0,5.642272949E0,8.846087441E0
8.209694583E0,2.811239243E0,5.666435719E0,5.517706871E0,8.393845897E0
8.214731198E0,3.144213676E0,5.908381462E0,5.829121590E0,8.875455462E0
8.219767812E0,3.426882505E0,6.198236942E0,6.468720436E0,9.591976281E0
8.224804479E0,3.515516043E0,6.128767014E0,6.811276913E0,9.813976326E0
8.229846042E0,3.520307064E0,5.908381462E0,6.969379902E0,9.791516202E0
8.234882708E0,3.450837612E0,5.604152679E0,6.964588642E0,9.582291085E0
8.239919323E0,3.467606068E0,5.436467648E0,6.895119190E0,9.440452371E0
8.244955989E0,3.628104687E0,5.424490452E0,6.684315205E0,9.341750908E0
8.249992604E0,3.822140217E0,5.446049690E0,6.320199013E0,9.176771144E0
8.255029219E0,4.023362160E0,5.472400188E0,5.903382301E0,8.999140486E0
8.260047344E0,4.286867142E0,5.364602566E0,5.441050529E0,8.761348152E0
8.265084010E0,4.502461910E0,5.287946701E0,5.048188686E0,8.585962531E0
8.270120625E0,4.519230843E0,5.304715157E0,4.899667740E0,8.518814135E0
8.275157292E0,4.562349796E0,5.470004559E0,5.012256145E0,8.709689845E0
8.280193906E0,4.332381725E0,5.515519142E0,5.112867355E0,8.679394876E0
8.285230521E0,3.898796082E0,5.335856915E0,5.112867355E0,8.355440891E0
8.290303802E0,3.359808683E0,5.105888844E0,5.201500893E0,8.025834960E0
8.295340469E0,2.837589741E0,4.816033363E0,5.297320843E0,7.701149330E0
8.300377083E0,2.451914072E0,4.576483250E0,5.481774330E0,7.550227239E0
8.305413698E0,2.178827047E0,4.418380260E0,5.814748764E0,7.621067813E0
8.310450364E0,1.991978049E0,4.209971428E0,6.291453362E0,7.827785215E0
8.315486979E0,1.814710975E0,3.956048489E0,6.629218578E0,7.930323734E0
8.320504948E0,1.582347512E0,3.618283033E0,6.689106464E0,7.767878800E0
8.325541614E0,1.807524562E0,3.699729919E0,7.024476051E0,8.142383577E0
8.330578229E0,2.243505716E0,4.118942738E0,7.616164684E0,8.944549831E0
8.335614844E0,2.300997734E0,4.327351093E0,8.073705673E0,9.444854756E0
8.340651510E0,2.176431656E0,4.384843349E0,8.286905289E0,9.624785983E0
8.345688125E0,2.229132652E0,4.260277271E0,8.104846954E0,9.423775197E0
8.350722864E0,1.905740023E0,4.066241741E0,8.255764008E0,9.398074605E0
8.355759531E0,1.608698010E0,3.917720556E0,8.241391182E0,9.265903748E0
8.360796146E0,1.534437537E0,3.934489012E0,8.109638214E0,9.143354653E0
8.365832812E0,1.431431055E0,3.929697990E0,8.207853317E0,9.211969238E0
8.370869427E0,1.191881061E0,3.759617567E0,8.358770370E0,9.242529244E0
8.375906042E0,1.182299018E0,3.520067453E0,8.334815025E0,9.124573817E0
8.380930573E0,1.302073956E0,3.280517578E0,8.370747566E0,9.084415610E0
8.385967239E0,1.517668962E0,3.002639532E0,8.380330086E0,9.030453786E0
8.391003906E0,1.649421453E0,2.736739159E0,8.571969986E0,9.148169314E0
8.396040521E0,2.039888144E0,2.597800016E0,8.849847794E0,9.446137546E0
8.401077135E0,2.677091122E0,2.597800016E0,8.964831352E0,9.709973377E0
8.406113750E0,3.261593103E0,2.566658497E0,9.139702797E0,1.003792272E1
8.411174479E0,3.508329630E0,2.413346529E0,9.261873245E0,1.019386650E1
8.416211146E0,3.278361559E0,2.228893042E0,9.455908775E0,1.025328384E1
8.421247760E0,3.144213676E0,2.154632568E0,9.470282555E0,1.020856370E1
8.426284375E0,2.986110687E0,2.142655134E0,9.487051010E0,1.017408300E1
8.431321042E0,2.916641235E0,2.152237177E0,9.757741928E0,1.040924822E1
8.436357604E0,3.002879143E0,2.202542543E0,1.010748482E1,1.077170953E1
8.441387135E0,3.259197712E0,2.291176081E0,1.049316025E1,1.122400417E1
8.446423802E0,3.525098085E0,2.305549145E0,1.092914200E1,1.171272890E1
8.451460469E0,3.721529007E0,2.264825583E0,1.135074997E1,1.215807295E1
8.456497083E0,3.786207676E0,2.152237177E0,1.166456032E1,1.245108272E1
8.461533698E0,3.635291100E0,1.915082455E0,1.191129684E1,1.260007439E1
