"Time (s)","Acceleration x (m/s^2)","Acceleration y (m/s^2)","Acceleration z (m/s^2)","Absolute acceleration (m/s^2)"
0.000000000E0,1.857710183E-1,1.040845439E-1,9.822421074E0,9.824729015E0
4.970416000E-3,1.881665289E-1,1.064800546E-1,9.935009003E0,9.937361246E0
1.000750000E-2,2.001440227E-1,9.210705012E-2,9.884703636E0,9.887158708E0
1.504458300E-2,2.240990251E-1,1.352260560E-1,9.896680832E0,9.900141309E0
2.008166600E-2,2.288900167E-1,1.783450693E-1,9.935009003E0,9.939245519E0
2.511880200E-2,2.264945209E-1,1.040845439E-1,9.894286156E0,9.897425518E0
3.015588500E-2,2.049350291E-1,1.184575483E-1,9.911054611E0,9.913880878E0
3.521661400E-2,2.288900167E-1,1.304350346E-1,9.915844917E0,9.919343948E0
4.025369800E-2,2.217035294E-1,1.208530590E-1,9.896680832E0,9.899901485E0
4.529083300E-2,2.049350291E-1,9.450256079E-2,9.939800262E0,9.942361810E0
5.032791600E-2,2.264945209E-1,1.016890332E-1,9.923031807E0,9.926137248E0
5.536500000E-2,2.193080187E-1,7.773404568E-2,9.925427437E0,9.928154330E0
6.040208300E-2,1.833755225E-1,7.054757327E-2,9.860748291E0,9.862705532E0
6.547682300E-2,2.001440227E-1,6.575655192E-2,9.894286156E0,9.896528689E0
7.051390600E-2,2.264945209E-1,2.024208568E-2,9.927823067E0,9.930426998E0
7.555098900E-2,2.097260207E-1,3.473570105E-3,9.899076462E0,9.901298494E0
8.058807300E-2,2.025395185E-1,2.263753675E-2,9.875122070E0,9.877224844E0
8.562515600E-2,2.025395185E-1,2.982406877E-2,9.920636177E0,9.922748303E0
9.066229100E-2,2.097260207E-1,3.221957758E-2,9.879912376E0,9.882190631E0
9.567364500E-2,2.217035294E-1,4.180156067E-2,9.915844917E0,9.918411176E0
1.007107810E-1,2.073305249E-1,3.221957758E-2,9.872726440E0,9.874955768E0
1.057478640E-1,2.288900167E-1,7.533853501E-2,9.896680832E0,9.899614034E0
1.107849480E-1,1.857710183E-1,7.533853501E-2,9.915844917E0,9.917871102E0
1.158220830E-1,2.049350291E-1,8.731608838E-2,9.935009003E0,9.937506043E0
1.208591660E-1,2.288900167E-1,9.689807147E-2,9.906263351E0,9.909381084E0
1.258815100E-1,2.025395185E-1,8.731608838E-2,9.915844917E0,9.918297575E0
1.309185930E-1,2.217035294E-1,1.256440729E-1,9.935009003E0,9.938276650E0
1.359557290E-1,2.073305249E-1,1.519945711E-1,9.911054611E0,9.914388120E0
1.409928120E-1,2.193080187E-1,9.210705012E-2,9.958964348E0,9.961804585E0
1.460298950E-1,2.288900167E-1,1.112710759E-1,9.913449287E0,9.916715619E0
1.510669790E-1,2.073305249E-1,1.280395836E-1,9.875122070E0,9.878128162E0
1.562034890E-1,1.953530163E-1,9.450256079E-2,9.865539551E0,9.867926031E0
1.612405730E-1,2.193080187E-1,1.352260560E-1,9.961359978E0,9.964691400E0
1.662777080E-1,2.288900167E-1,9.929358214E-2,9.930217743E0,9.933351613E0
1.713147910E-1,2.193080187E-1,7.054757327E-2,9.899076462E0,9.901756802E0
1.763518750E-1,2.097260207E-1,6.575655192E-2,9.870330811E0,9.872777686E0
1.813889580E-1,2.169125229E-1,5.377905443E-2,9.891890526E0,9.894414657E0
1.863226560E-1,2.073305249E-1,3.940605000E-2,9.884703636E0,9.886956294E0
1.913597910E-1,2.217035294E-1,2.263753675E-2,9.930217743E0,9.932718124E0
1.963968230E-1,2.121215165E-1,6.575655192E-2,9.879912376E0,9.882408008E0
2.014339580E-1,2.001440227E-1,4.898803309E-2,9.882308006E0,9.884455928E0
2.064710410E-1,2.121215165E-1,3.940605000E-2,9.925427437E0,9.927772065E0
2.115081250E-1,1.857710183E-1,5.138354376E-2,9.889494896E0,9.891373031E0
2.165327080E-1,1.618160307E-1,1.784657501E-2,9.891890526E0,9.893230064E0
2.215697910E-1,1.809800267E-1,5.617456511E-2,9.906263351E0,9.908075643E0
2.266068750E-1,2.001440227E-1,5.857007578E-2,9.887099266E0,9.889298255E0
2.316440100E-1,2.097260207E-1,8.252506703E-2,9.908658981E0,9.911221832E0
2.366810930E-1,1.857710183E-1,8.971153945E-2,9.894286156E0,9.896436609E0
2.417182290E-1,1.857710183E-1,9.210705012E-2,9.908658981E0,9.910828290E0
2.467830730E-1,1.953530163E-1,1.112710759E-1,9.915844917E0,9.918393241E0
2.518202080E-1,2.480540127E-1,1.088755652E-1,9.923031807E0,9.926728813E0
2.568572910E-1,2.288900167E-1,1.256440729E-1,9.872726440E0,9.876178636E0
2.618944270E-1,2.001440227E-1,1.328305453E-1,9.860748291E0,9.863673679E0
2.669314580E-1,2.121215165E-1,1.280395836E-1,9.908658981E0,9.911756276E0
2.719685930E-1,2.264945209E-1,1.160620376E-1,9.932613373E0,9.935873317E0
2.770069790E-1,1.977485269E-1,1.232485697E-1,9.899076462E0,9.901818494E0
2.820441140E-1,1.929575205E-1,9.929358214E-2,9.884703636E0,9.887085404E0
2.870811980E-1,2.097260207E-1,8.252506703E-2,9.894286156E0,9.896852728E0
2.921183330E-1,2.025395185E-1,7.773404568E-2,9.908658981E0,9.911033632E0
2.971553640E-1,1.785845160E-1,3.461508825E-2,9.915844917E0,9.917513351E0
3.021925000E-1,2.288900167E-1,1.078059315E-3,9.903867722E0,9.906512386E0
3.072335930E-1,2.312855273E-1,3.701053932E-2,9.927823067E0,9.930585764E0
3.122707290E-1,1.833755225E-1,2.024208568E-2,9.891890526E0,9.893610792E0
3.173078120E-1,1.785845160E-1,6.096558645E-2,9.872726440E0,9.874529690E0
3.223449480E-1,2.240990251E-1,4.659258202E-2,9.887099266E0,9.889748386E0
3.273819790E-1,2.145170271E-1,4.659258202E-2,9.903867722E0,9.906300231E0
3.324191140E-1,1.977485269E-1,4.898803309E-2,9.903867722E0,9.905962858E0
3.375222910E-1,1.929575205E-1,5.377905443E-2,9.899076462E0,9.901102948E0
3.425593750E-1,1.953530163E-1,4.659258202E-2,9.889494896E0,9.891533904E0
3.475964580E-1,1.761890203E-1,9.929358214E-2,9.891890526E0,9.893957750E0
3.526335930E-1,1.953530163E-1,1.088755652E-1,9.901472092E0,9.903997489E0
3.576706770E-1,1.881665289E-1,1.016890332E-1,9.901472092E0,9.903781949E0
3.627078120E-1,2.001440227E-1,1.256440729E-1,9.877516747E0,9.880343169E0
3.676732810E-1,2.049350291E-1,1.088755652E-1,9.903867722E0,9.906586097E0
3.727104160E-1,1.833755225E-1,9.929358214E-2,9.901472092E0,9.903667774E0
3.777475000E-1,2.097260207E-1,1.352260560E-1,9.889494896E0,9.892642740E0
3.827845830E-1,2.121215165E-1,1.280395836E-1,9.884703636E0,9.887808435E0
3.878216660E-1,2.408675253E-1,9.929358214E-2,9.896680832E0,9.900109488E0
3.928588020E-1,2.001440227E-1,7.533853501E-2,9.896680832E0,9.898991111E0
3.978896350E-1,2.408675253E-1,8.971153945E-2,9.903867722E0,9.907202490E0
4.029267180E-1,2.264945209E-1,5.377905443E-2,9.923031807E0,9.925762046E0
4.079638540E-1,2.049350291E-1,5.617456511E-2,9.891890526E0,9.894172635E0
4.130009370E-1,2.193080187E-1,8.731608838E-2,9.903867722E0,9.906680370E0
4.180380730E-1,2.097260207E-1,4.898803309E-2,9.877516747E0,9.879864468E0
4.230751560E-1,2.264945209E-1,4.419707134E-2,9.906263351E0,9.908950839E0
4.281399480E-1,2.264945209E-1,5.617456511E-2,9.908658981E0,9.911406467E0
4.331770830E-1,2.145170271E-1,6.336104125E-2,9.901472092E0,9.903998271E0
4.382141660E-1,2.121215165E-1,6.336104125E-2,9.894286156E0,9.896762536E0
4.432513020E-1,1.809800267E-1,4.419707134E-2,9.937404633E0,9.939150768E0
4.482883330E-1,2.121215165E-1,7.294308394E-2,9.887099266E0,9.889643478E0
4.533254680E-1,2.097260207E-1,4.898803309E-2,9.875122070E0,9.877470361E0
4.583239580E-1,1.690025181E-1,6.336104125E-2,9.894286156E0,9.895932245E0
4.633610410E-1,1.761890203E-1,7.773404568E-2,9.901472092E0,9.903344624E0
4.683981770E-1,1.881665289E-1,7.054757327E-2,9.903867722E0,9.905906291E0
4.734352600E-1,1.977485269E-1,9.689807147E-2,9.887099266E0,9.889551335E0
4.784723430E-1,1.929575205E-1,1.088755652E-1,9.875122070E0,9.877607119E0
4.835094270E-1,2.049350291E-1,1.256440729E-1,9.913449287E0,9.916363324E0
4.885652600E-1,2.193080187E-1,1.160620376E-1,9.884703636E0,9.887817372E0
4.936023950E-1,2.073305249E-1,1.088755652E-1,9.906263351E0,9.909030902E0
4.986394790E-1,2.217035294E-1,1.040845439E-1,9.899076462E0,9.902105879E0
5.036765620E-1,2.025395185E-1,1.280395836E-1,9.918240547E0,9.921134610E0
5.087136450E-1,2.025395185E-1,1.208530590E-1,9.911054611E0,9.913860561E0
5.137507810E-1,2.049350291E-1,9.210705012E-2,9.927823067E0,9.930365196E0
5.187883330E-1,2.001440227E-1,1.064800546E-1,9.920636177E0,9.923226178E0
5.238254680E-1,2.169125229E-1,1.040845439E-1,9.906263351E0,9.909184539E0
5.288625520E-1,2.097260207E-1,4.419707134E-2,9.891890526E0,9.894212276E0
5.338996870E-1,2.193080187E-1,5.617456511E-2,9.911054611E0,9.913639851E0
5.389367180E-1,2.312855273E-1,5.617456511E-2,9.918240547E0,9.921095914E0
5.439738540E-1,2.217035294E-1,6.096558645E-2,9.920636177E0,9.923300430E0
5.490097390E-1,1.977485269E-1,3.701053932E-2,9.899076462E0,9.901120596E0
5.540468230E-1,2.264945209E-1,4.659258202E-2,9.887099266E0,9.889802957E0
5.590839060E-1,2.025395185E-1,2.982406877E-2,9.882308006E0,9.884428323E0
5.641209890E-1,1.713980287E-1,5.857007578E-2,9.872726440E0,9.874387834E0
5.691580730E-1,1.929575205E-1,4.419707134E-2,9.896680832E0,9.898660388E0
5.741952080E-1,2.097260207E-1,5.617456511E-2,9.865539551E0,9.867928416E0
5.792385930E-1,1.929575205E-1,5.138354376E-2,9.911054611E0,9.913065942E0
5.842757290E-1,1.809800267E-1,8.252506703E-2,9.889494896E0,9.891495006E0
5.893128120E-1,2.049350291E-1,1.040845439E-1,9.915844917E0,9.918508577E0
5.943499480E-1,1.809800267E-1,1.160620376E-1,9.908658981E0,9.910991221E0
5.993869790E-1,2.073305249E-1,1.232485697E-1,9.877516747E0,9.880461185E0
6.044241140E-1,2.240990251E-1,1.064800546E-1,9.908658981E0,9.911764787E0
6.094472390E-1,2.217035294E-1,1.304350346E-1,9.884703636E0,9.888049946E0
6.144843230E-1,2.097260207E-1,1.160620376E-1,9.923031807E0,9.925926437E0
6.195214060E-1,2.073305249E-1,1.016890332E-1,9.884703636E0,9.887400699E0
6.245585410E-1,1.857710183E-1,1.040845439E-1,9.891890526E0,9.894182262E0
6.295956250E-1,2.025395185E-1,8.012955636E-2,9.927823067E0,9.930212175E0
6.346327080E-1,2.264945209E-1,7.773404568E-2,9.913449287E0,9.916341015E0
6.396810410E-1,2.193080187E-1,5.377905443E-2,9.860748291E0,9.863333364E0
6.447181770E-1,1.857710183E-1,6.815206259E-2,9.920636177E0,9.922609422E0
6.497552600E-1,1.881665289E-1,4.180156067E-2,9.906263351E0,9.908138453E0
6.547923950E-1,2.097260207E-1,6.096558645E-2,9.891890526E0,9.894301389E0
6.598294790E-1,2.193080187E-1,2.263753675E-2,9.875122070E0,9.877582921E0
6.648665620E-1,2.025395185E-1,4.898803309E-2,9.908658981E0,9.910849857E0
6.698968750E-1,1.953530163E-1,5.138354376E-2,9.896680832E0,9.898742069E0
6.749340100E-1,1.905620247E-1,8.252506703E-2,9.925427437E0,9.927599613E0
6.799710410E-1,2.001440227E-1,7.054757327E-2,9.894286156E0,9.896561682E0
6.850081770E-1,2.121215165E-1,7.533853501E-2,9.891890526E0,9.894451456E0
6.900452600E-1,1.929575205E-1,7.773404568E-2,9.915844917E0,9.918026800E0
6.950823430E-1,2.217035294E-1,6.336104125E-2,9.884703636E0,9.887392632E0
7.001597390E-1,2.193080187E-1,8.971153945E-2,9.911054611E0,9.913886608E0
7.051968230E-1,1.881665289E-1,1.016890332E-1,9.903867722E0,9.906177020E0
7.102339060E-1,2.097260207E-1,8.971153945E-2,9.908658981E0,9.911284275E0
7.152710410E-1,2.001440227E-1,9.210705012E-2,9.899076462E0,9.901527970E0
7.203081250E-1,2.073305249E-1,9.210705012E-2,9.932613373E0,9.935203977E0
7.253452600E-1,2.049350291E-1,9.450256079E-2,9.891890526E0,9.894464476E0
7.303695310E-1,2.240990251E-1,1.136665866E-1,9.918240547E0,9.921423084E0
7.354066140E-1,2.336810231E-1,9.689807147E-2,9.911054611E0,9.914282605E0
7.404437500E-1,2.169125229E-1,7.533853501E-2,9.870330811E0,9.873001431E0
7.454808330E-1,1.833755225E-1,7.054757327E-2,9.901472092E0,9.903421284E0
7.505179160E-1,2.145170271E-1,9.450256079E-2,9.918240547E0,9.921010223E0
7.555550520E-1,2.312855273E-1,9.210705012E-2,9.899076462E0,9.902206396E0
7.605821350E-1,2.288900167E-1,5.857007578E-2,9.894286156E0,9.897106629E0
7.656192180E-1,2.408675253E-1,8.492057770E-2,9.908658981E0,9.911949933E0
7.706563020E-1,2.408675253E-1,4.898803309E-2,9.899076462E0,9.902127639E0
7.756934370E-1,2.193080187E-1,2.742855810E-2,9.891890526E0,9.894359328E0
7.807305200E-1,1.881665289E-1,7.294308394E-2,9.891890526E0,9.893948934E0
7.857676040E-1,1.953530163E-1,8.012955636E-2,9.903867722E0,9.906118281E0
7.907798950E-1,1.953530163E-1,6.336104125E-2,9.899076462E0,9.901206604E0
7.958169790E-1,1.977485269E-1,9.210705012E-2,9.913449287E0,9.915849180E0
8.008541140E-1,1.785845160E-1,6.096558645E-2,9.903867722E0,9.905665302E0
8.058911980E-1,1.737935245E-1,3.701053932E-2,9.899076462E0,9.900671127E0
8.109282810E-1,2.169125229E-1,6.575655192E-2,9.870330811E0,9.872932962E0
8.159653640E-1,2.145170271E-1,1.016890332E-1,9.901472092E0,9.904317634E0
8.210205730E-1,1.785845160E-1,7.773404568E-2,9.918240547E0,9.920152749E0
8.260576560E-1,1.833755225E-1,1.136665866E-1,9.891890526E0,9.894243016E0
8.310947390E-1,2.217035294E-1,8.492057770E-2,9.899076462E0,9.901922983E0
8.361318750E-1,2.145170271E-1,1.112710759E-1,9.896680832E0,9.899630816E0
8.411689060E-1,2.097260207E-1,1.040845439E-1,9.920636177E0,9.923398649E0
8.462060410E-1,1.857710183E-1,1.136665866E-1,9.901472092E0,9.903866949E0
8.512536450E-1,2.145170271E-1,1.304350346E-1,9.915844917E0,9.919022698E0
8.562907810E-1,2.121215165E-1,9.210705012E-2,9.906263351E0,9.908962248E0
8.613279160E-1,2.169125229E-1,5.857007578E-2,9.899076462E0,9.901625942E0
8.663650000E-1,1.833755225E-1,6.575655192E-2,9.879912376E0,9.881832779E0
8.714020830E-1,2.097260207E-1,6.575655192E-2,9.887099266E0,9.889541993E0
8.764391660E-1,2.193080187E-1,4.659258202E-2,9.903867722E0,9.906405136E0
8.814421870E-1,2.624270320E-1,6.096558645E-2,9.884703636E0,9.888374524E0
8.864792700E-1,2.480540127E-1,6.815206259E-2,9.882308006E0,9.885655620E0
8.915163540E-1,1.929575205E-1,3.701053932E-2,9.920636177E0,9.922581546E0
8.965534890E-1,1.953530163E-1,2.024208568E-2,9.920636177E0,9.922580043E0
9.015905730E-1,2.097260207E-1,4.419707134E-2,9.889494896E0,9.891817208E0
9.066276560E-1,2.312855273E-1,5.138354376E-2,9.860748291E0,9.863594179E0
9.116851040E-1,1.833755225E-1,5.617456511E-2,9.872726440E0,9.874589082E0
9.167222390E-1,1.905620247E-1,6.815206259E-2,9.882308006E0,9.884380108E0
9.217593230E-1,1.953530163E-1,6.336104125E-2,9.906263351E0,9.908391949E0
9.267964060E-1,1.929575205E-1,6.575655192E-2,9.937404633E0,9.939495327E0
9.318334890E-1,2.025395185E-1,9.929358214E-2,9.911054611E0,9.913621184E0
9.368706250E-1,1.809800267E-1,1.232485697E-1,9.870330811E0,9.872759203E0
9.419099480E-1,1.761890203E-1,1.112710759E-1,9.887099266E0,9.889295006E0
9.469470830E-1,2.049350291E-1,8.012955636E-2,9.925427437E0,9.927866282E0
9.519841660E-1,2.049350291E-1,1.016890332E-1,9.906263351E0,9.908904713E0
9.570212500E-1,2.049350291E-1,1.232485697E-1,9.915844917E0,9.918728195E0
9.620583850E-1,2.264945209E-1,7.773404568E-2,9.944591522E0,9.947474197E0
9.670954680E-1,2.193080187E-1,9.450256079E-2,9.882308006E0,9.885192880E0
9.721498430E-1,2.240990251E-1,5.617456511E-2,9.918240547E0,9.920930980E0
9.771869790E-1,2.264945209E-1,8.252506703E-2,9.932613373E0,9.935538162E0
9.822240620E-1,2.408675253E-1,9.689807147E-2,9.915844917E0,9.919243259E0
9.872611450E-1,2.193080187E-1,6.336104125E-2,9.908658981E0,9.911288183E0
9.922982810E-1,2.025395185E-1,8.731608838E-2,9.877516747E0,9.879978919E0
9.973353640E-1,2.408675253E-1,9.210705012E-2,9.927823067E0,9.931171719E0
1.002334895E0,2.169125229E-1,5.857007578E-2,9.884703636E0,9.887256822E0
1.007371979E0,1.977485269E-1,3.221957758E-2,9.891890526E0,9.893919383E0
1.012408958E0,1.881665289E-1,5.138354376E-2,9.920636177E0,9.922553556E0
1.017446041E0,1.953530163E-1,5.138354376E-2,9.875122070E0,9.877187807E0
1.022483073E0,1.953530163E-1,8.252506703E-2,9.858353615E0,9.860634319E0
1.027520156E0,2.001440227E-1,3.701053932E-2,9.899076462E0,9.901168729E0
1.032547864E0,1.953530163E-1,9.450256079E-2,9.925427437E0,9.927799521E0
1.037584895E0,1.785845160E-1,9.450256079E-2,9.906263351E0,9.908323610E0
1.042621927E0,1.977485269E-1,8.971153945E-2,9.908658981E0,9.911038061E0
1.047659010E0,1.953530163E-1,7.773404568E-2,9.899076462E0,9.901309013E0
1.052696041E0,2.049350291E-1,6.575655192E-2,9.891890526E0,9.894231676E0
1.057733125E0,2.145170271E-1,8.012955636E-2,9.853562355E0,9.856222876E0
1.062894166E0,1.690025181E-1,6.815206259E-2,9.896680832E0,9.898358351E0
1.067931198E0,1.761890203E-1,1.232485697E-1,9.899076462E0,9.901411393E0
1.072968229E0,2.073305249E-1,7.533853501E-2,9.865539551E0,9.868005496E0
1.078005312E0,2.073305249E-1,6.575655192E-2,9.911054611E0,9.913441046E0
1.083042343E0,2.240990251E-1,8.012955636E-2,9.918240547E0,9.921095538E0
1.088079375E0,2.696135342E-1,7.294308394E-2,9.896680832E0,9.900621376E0
1.093023281E0,2.240990251E-1,5.617456511E-2,9.858353615E0,9.861060387E0
1.098060312E0,1.953530163E-1,8.971153945E-2,9.855957985E0,9.858302022E0
1.103097343E0,2.408675253E-1,8.971153945E-2,9.920636177E0,9.923965310E0
1.108134427E0,2.001440227E-1,6.815206259E-2,9.889494896E0,9.891754730E0
1.113171458E0,2.336810231E-1,6.096558645E-2,9.860748291E0,9.863705211E0
1.118208489E0,2.121215165E-1,2.742855810E-2,9.891890526E0,9.894202648E0
1.123261198E0,2.240990251E-1,2.982406877E-2,9.903867722E0,9.906447683E0
1.128298281E0,1.977485269E-1,8.971153945E-2,9.891890526E0,9.894273638E0
1.133335312E0,2.049350291E-1,9.450256079E-2,9.918240547E0,9.920807661E0
1.138372395E0,2.169125229E-1,8.971153945E-2,9.944591522E0,9.947361446E0
1.143409427E0,1.785845160E-1,9.210705012E-2,9.935009003E0,9.937040808E0
1.148446510E0,1.881665289E-1,8.492057770E-2,9.889494896E0,9.891649379E0
1.153447552E0,2.121215165E-1,8.731608838E-2,9.882308006E0,9.884969963E0
1.158484583E0,2.145170271E-1,7.054757327E-2,9.908658981E0,9.911231877E0
1.163521666E0,2.121215165E-1,8.252506703E-2,9.848771095E0,9.851400815E0
1.168558698E0,1.977485269E-1,1.088755652E-1,9.882308006E0,9.884885933E0
1.173595729E0,1.761890203E-1,7.773404568E-2,9.920636177E0,9.922505092E0
1.178632812E0,1.977485269E-1,8.971153945E-2,9.894286156E0,9.896668691E0
1.183699948E0,2.073305249E-1,1.136665866E-1,9.903867722E0,9.906689754E0
1.188737031E0,2.097260207E-1,9.450256079E-2,9.903867722E0,9.906538830E0
1.193774062E0,1.905620247E-1,9.689807147E-2,9.932613373E0,9.934913766E0
1.198811145E0,1.785845160E-1,9.210705012E-2,9.882308006E0,9.884350645E0
1.203848177E0,2.097260207E-1,1.256440729E-1,9.932613373E0,9.935621765E0
1.208885260E0,1.785845160E-1,9.689807147E-2,9.906263351E0,9.908346747E0
1.213915729E0,2.217035294E-1,1.088755652E-1,9.908658981E0,9.911736939E0
1.218952812E0,2.217035294E-1,6.815206259E-2,9.932613373E0,9.935321111E0
1.223989843E0,2.097260207E-1,5.377905443E-2,9.930217743E0,9.932577793E0
1.229026875E0,1.881665289E-1,8.971153945E-2,9.911054611E0,9.913246608E0
1.234063958E0,1.929575205E-1,4.180156067E-2,9.930217743E0,9.932180244E0
1.239100989E0,2.145170271E-1,8.731608838E-2,9.884703636E0,9.887416631E0
1.244155416E0,2.312855273E-1,6.336104125E-2,9.908658981E0,9.911560443E0
1.249192448E0,1.977485269E-1,4.419707134E-2,9.925427437E0,9.927495538E0
1.254229531E0,2.217035294E-1,7.294308394E-2,9.913449287E0,9.916196343E0
1.259266510E0,1.953530163E-1,6.575655192E-2,9.877516747E0,9.879667191E0
1.264303593E0,1.929575205E-1,5.377905443E-2,9.911054611E0,9.913078649E0
1.269340677E0,1.929575205E-1,5.138354376E-2,9.932613373E0,9.934620339E0
1.274385000E0,1.929575205E-1,7.054757327E-2,9.915844917E0,9.917973079E0
1.279422031E0,1.929575205E-1,1.136665866E-1,9.901472092E0,9.904004356E0
1.284459062E0,1.905620247E-1,9.929358214E-2,9.901472092E0,9.903803445E0
1.289496145E0,2.145170271E-1,6.096558645E-2,9.918240547E0,9.920747447E0
1.294533177E0,1.881665289E-1,5.857007578E-2,9.882308006E0,9.884272792E0
1.299570208E0,1.977485269E-1,8.731608838E-2,9.903867722E0,9.906226548E0
1.304578593E0,1.905620247E-1,8.971153945E-2,9.901472092E0,9.903712013E0
1.309615677E0,1.809800267E-1,1.040845439E-1,9.884703636E0,9.886908179E0
1.314652708E0,2.049350291E-1,7.054757327E-2,9.894286156E0,9.896659732E0
1.319689739E0,2.240990251E-1,6.575655192E-2,9.889494896E0,9.892252200E0
1.324726823E0,2.217035294E-1,8.252506703E-2,9.870330811E0,9.873165306E0
1.329763854E0,1.929575205E-1,6.096558645E-2,9.915844917E0,9.917909549E0
1.334804791E0,2.097260207E-1,5.857007578E-2,9.913449287E0,9.915840470E0
1.339841875E0,2.576360404E-1,7.054757327E-2,9.920636177E0,9.924231731E0
1.344878958E0,2.312855273E-1,5.857007578E-2,9.901472092E0,9.904346169E0
1.349915937E0,2.145170271E-1,5.617456511E-2,9.915844917E0,9.918324131E0
1.354953020E0,1.905620247E-1,7.533853501E-2,9.855957985E0,9.858087927E0
1.359990104E0,1.905620247E-1,5.377905443E-2,9.903867722E0,9.905846855E0
1.365027604E0,2.145170271E-1,5.377905443E-2,9.925427437E0,9.927890992E0
1.370064687E0,2.312855273E-1,9.210705012E-2,9.915844917E0,9.918969560E0
1.375101718E0,2.193080187E-1,5.857007578E-2,9.884703636E0,9.887309666E0
1.380138802E0,1.881665289E-1,6.336104125E-2,9.887099266E0,9.889092636E0
1.385175833E0,1.761890203E-1,1.064800546E-1,9.901472092E0,9.903611975E0
1.390212864E0,2.073305249E-1,1.064800546E-1,9.875122070E0,9.877872233E0
1.395268593E0,1.929575205E-1,8.252506703E-2,9.889494896E0,9.891721402E0
1.400305677E0,1.929575205E-1,8.252506703E-2,9.882308006E0,9.884536131E0
1.405342760E0,1.809800267E-1,1.112710759E-1,9.884703636E0,9.886986447E0
1.410379791E0,1.857710183E-1,6.575655192E-2,9.915844917E0,9.917802943E0
1.415416823E0,1.977485269E-1,7.773404568E-2,9.923031807E0,9.925306409E0
1.420453854E0,2.169125229E-1,5.857007578E-2,9.894286156E0,9.896836870E0
1.425499166E0,1.546295285E-1,5.857007578E-2,9.920636177E0,9.922014055E0
1.430536198E0,2.049350291E-1,8.012955636E-2,9.884703636E0,9.887152527E0
1.435573281E0,2.097260207E-1,1.136665866E-1,9.908658981E0,9.911530049E0
1.440610312E0,2.193080187E-1,8.012955636E-2,9.884703636E0,9.887460884E0
1.445647343E0,2.121215165E-1,4.419707134E-2,9.860748291E0,9.863128600E0
1.450684427E0,1.761890203E-1,8.492057770E-2,9.913449287E0,9.915378503E0
1.455720364E0,2.097260207E-1,6.575655192E-2,9.899076462E0,9.901516234E0
1.460757395E0,2.360765189E-1,2.742855810E-2,9.923031807E0,9.925877527E0
1.465794427E0,2.025395185E-1,7.533853501E-2,9.889494896E0,9.891855612E0
1.470831510E0,2.001440227E-1,5.857007578E-2,9.884703636E0,9.886903158E0
1.475868541E0,2.073305249E-1,5.857007578E-2,9.894286156E0,9.896631494E0
1.480905625E0,2.217035294E-1,7.054757327E-2,9.896680832E0,9.899415180E0
1.485896614E0,2.097260207E-1,1.016890332E-1,9.899076462E0,9.901820058E0
1.490933698E0,2.264945209E-1,6.815206259E-2,9.903867722E0,9.906691694E0
1.495970729E0,2.264945209E-1,7.773404568E-2,9.889494896E0,9.892393626E0
1.501007760E0,1.953530163E-1,9.450256079E-2,9.939800262E0,9.942168918E0
1.506044791E0,2.169125229E-1,1.160620376E-1,9.913449287E0,9.916501309E0
1.511081875E0,2.001440227E-1,1.112710759E-1,9.906263351E0,9.908909752E0
1.516175885E0,1.881665289E-1,1.016890332E-1,9.875122070E0,9.877438089E0
1.521212968E0,1.713980287E-1,1.136665866E-1,9.887099266E0,9.889238053E0
1.526250052E0,1.977485269E-1,9.210705012E-2,9.894286156E0,9.896690695E0
1.531287083E0,2.025395185E-1,7.054757327E-2,9.879912376E0,9.882240018E0
1.536324114E0,1.881665289E-1,1.040845439E-1,9.872726440E0,9.875067980E0
1.541361198E0,2.217035294E-1,9.210705012E-2,9.908658981E0,9.911566928E0
1.546349062E0,1.977485269E-1,6.096558645E-2,9.920636177E0,9.922794135E0
1.551386145E0,1.881665289E-1,5.377905443E-2,9.899076462E0,9.901010738E0
1.556423177E0,2.001440227E-1,8.731608838E-2,9.851166725E0,9.853586534E0
1.561460208E0,2.360765189E-1,7.533853501E-2,9.882308006E0,9.885414485E0
1.566497239E0,2.217035294E-1,1.016890332E-1,9.896680832E0,9.899686086E0
1.571534323E0,2.121215165E-1,8.252506703E-2,9.877516747E0,9.880138815E0
1.576591354E0,2.121215165E-1,7.773404568E-2,9.906263351E0,9.908839070E0
1.581628385E0,2.288900167E-1,8.012955636E-2,9.939800262E0,9.942758201E0
1.586665416E0,2.504495382E-1,6.575655192E-2,9.894286156E0,9.897673839E0
1.591702448E0,2.217035294E-1,5.857007578E-2,9.896680832E0,9.899337069E0
1.596739531E0,2.001440227E-1,4.898803309E-2,9.911054611E0,9.913196304E0
1.601776562E0,2.073305249E-1,5.377905443E-2,9.903867722E0,9.906183623E0
1.606811198E0,2.217035294E-1,7.294308394E-2,9.872726440E0,9.875484824E0
1.611848281E0,2.097260207E-1,7.054757327E-2,9.915844917E0,9.918313485E0
1.616885364E0,1.929575205E-1,9.210705012E-2,9.927823067E0,9.930125234E0
1.621922395E0,2.025395185E-1,8.731608838E-2,9.901472092E0,9.903928308E0
1.626959427E0,2.097260207E-1,8.971153945E-2,9.899076462E0,9.901704296E0
1.631996458E0,1.809800267E-1,9.450256079E-2,9.887099266E0,9.889207066E0
1.637039479E0,2.025395185E-1,9.689807147E-2,9.894286156E0,9.896833333E0
1.642076510E0,2.001440227E-1,8.012955636E-2,9.908658981E0,9.911004045E0
1.647113541E0,1.713980287E-1,9.450256079E-2,9.913449287E0,9.915381223E0
1.652150573E0,1.761890203E-1,8.971153945E-2,9.894286156E0,9.896261378E0
1.657187656E0,1.953530163E-1,5.857007578E-2,9.887099266E0,9.889202453E0
1.662224687E0,2.193080187E-1,6.815206259E-2,9.915844917E0,9.918503977E0
1.667245156E0,2.121215165E-1,8.731608838E-2,9.913449287E0,9.916102884E0
1.672282239E0,2.073305249E-1,8.492057770E-2,9.903867722E0,9.906401632E0
1.677319270E0,2.240990251E-1,7.533853501E-2,9.884703636E0,9.887530644E0
1.682356302E0,2.456585169E-1,8.731608838E-2,9.882308006E0,9.885746494E0
1.687393333E0,2.432630211E-1,6.815206259E-2,9.870330811E0,9.873563283E0
1.692430416E0,2.145170271E-1,5.857007578E-2,9.908658981E0,9.911153859E0
1.697448645E0,2.384720147E-1,5.138354376E-2,9.875122070E0,9.878134696E0
1.702485677E0,2.288900167E-1,7.054757327E-2,9.882308006E0,9.885210121E0
1.707522708E0,2.001440227E-1,7.773404568E-2,9.925427437E0,9.927749494E0
1.712559791E0,2.240990251E-1,9.689807147E-2,9.915844917E0,9.918850237E0
1.717596875E0,2.384720147E-1,7.773404568E-2,9.860748291E0,9.863937771E0
1.722633906E0,2.145170271E-1,6.815206259E-2,9.884703636E0,9.887265964E0
1.727707031E0,1.977485269E-1,6.096558645E-2,9.896680832E0,9.898844012E0
1.732744114E0,2.073305249E-1,8.492057770E-2,9.899076462E0,9.901611598E0
1.737781145E0,1.929575205E-1,8.492057770E-2,9.918240547E0,9.920480818E0
1.742818177E0,1.809800267E-1,1.256440729E-1,9.875122070E0,9.877579466E0
1.747855260E0,1.977485269E-1,8.252506703E-2,9.899076462E0,9.901395339E0
1.752892343E0,1.977485269E-1,8.012955636E-2,9.927823067E0,9.930115612E0
1.757933073E0,2.193080187E-1,7.054757327E-2,9.891890526E0,9.894572813E0
1.762970156E0,1.929575205E-1,7.533853501E-2,9.906263351E0,9.908428841E0
1.768007239E0,1.809800267E-1,1.040845439E-1,9.939800262E0,9.941992588E0
1.773044270E0,1.977485269E-1,7.533853501E-2,9.906263351E0,9.908523299E0
1.778081302E0,2.169125229E-1,9.689807147E-2,9.901472092E0,9.904321777E0
1.783118385E0,2.145170271E-1,6.815206259E-2,9.920636177E0,9.923189226E0
1.788169323E0,2.193080187E-1,8.971153945E-2,9.894286156E0,9.897122951E0
1.793206406E0,1.881665289E-1,6.336104125E-2,9.901472092E0,9.903462569E0
1.798243437E0,2.145170271E-1,4.180156067E-2,9.887099266E0,9.889514489E0
1.803280520E0,2.217035294E-1,5.377905443E-2,9.908658981E0,9.911284854E0
1.808317552E0,2.145170271E-1,6.575655192E-2,9.920636177E0,9.923173063E0
1.813354635E0,2.193080187E-1,3.940605000E-2,9.882308006E0,9.884819694E0
1.818352187E0,2.073305249E-1,5.377905443E-2,9.918240547E0,9.920553094E0
1.823389270E0,2.145170271E-1,1.040845439E-1,9.918240547E0,9.921106123E0
1.828426250E0,2.288900167E-1,7.773404568E-2,9.923031807E0,9.925975693E0
1.833463333E0,2.025395185E-1,8.012955636E-2,9.879912376E0,9.882313068E0
1.838500364E0,2.097260207E-1,8.012955636E-2,9.884703636E0,9.887252992E0
1.843537448E0,2.001440227E-1,1.016890332E-1,9.896680832E0,9.899226726E0
1.848574218E0,2.336810231E-1,7.294308394E-2,9.872726440E0,9.875760977E0
1.853611302E0,2.097260207E-1,6.815206259E-2,9.887099266E0,9.889558211E0
1.858648281E0,2.001440227E-1,8.492057770E-2,9.899076462E0,9.901463727E0
1.863685364E0,1.666070223E-1,8.731608838E-2,9.882308006E0,9.884098013E0
1.868722395E0,1.785845160E-1,9.450256079E-2,9.879912376E0,9.881978128E0
1.873759479E0,2.025395185E-1,8.012955636E-2,9.901472092E0,9.903867557E0
1.878828125E0,1.953530163E-1,5.377905443E-2,9.913449287E0,9.915519742E0
1.883865156E0,2.121215165E-1,6.096558645E-2,9.906263351E0,9.908721710E0
1.888902239E0,2.193080187E-1,1.088755652E-1,9.939800262E0,9.942815454E0
1.893939270E0,2.240990251E-1,7.773404568E-2,9.901472092E0,9.904312825E0
1.898976302E0,2.145170271E-1,4.659258202E-2,9.901472092E0,9.903905190E0
1.904013385E0,2.025395185E-1,8.731608838E-2,9.891890526E0,9.894349121E0
1.909040416E0,2.193080187E-1,8.971153945E-2,9.894286156E0,9.897122951E0
1.914077448E0,2.169125229E-1,8.012955636E-2,9.920636177E0,9.923330789E0
1.919114479E0,2.073305249E-1,4.659258202E-2,9.911054611E0,9.913332453E0
1.924151562E0,2.240990251E-1,8.252506703E-2,9.870330811E0,9.873219387E0
1.929188593E0,2.025395185E-1,7.054757327E-2,9.860748291E0,9.863080456E0
1.934225625E0,2.121215165E-1,6.336104125E-2,9.918240547E0,9.920710948E0
1.939243385E0,2.240990251E-1,7.533853501E-2,9.913449287E0,9.916268101E0
1.944280468E0,2.073305249E-1,5.377905443E-2,9.882308006E0,9.884628959E0
1.949317448E0,2.312855273E-1,5.377905443E-2,9.884703636E0,9.887555368E0
1.954354531E0,2.217035294E-1,5.617456511E-2,9.908658981E0,9.911298141E0
1.959391562E0,2.288900167E-1,8.252506703E-2,9.913449287E0,9.916434732E0
1.964428645E0,1.881665289E-1,7.054757327E-2,9.903867722E0,9.905906291E0
1.969489427E0,1.881665289E-1,1.136665866E-1,9.894286156E0,9.896728008E0
1.974526510E0,1.785845160E-1,9.450256079E-2,9.858353615E0,9.860423883E0
1.979563541E0,2.121215165E-1,9.450256079E-2,9.901472092E0,9.904194861E0
1.984600573E0,2.193080187E-1,8.012955636E-2,9.903867722E0,9.906619635E0
1.989637656E0,1.881665289E-1,7.533853501E-2,9.954173088E0,9.956236458E0
1.994674687E0,1.618160307E-1,8.731608838E-2,9.894286156E0,9.895994496E0
1.999710260E0,1.833755225E-1,7.294308394E-2,9.875122070E0,9.877093863E0
2.004747343E0,1.881665289E-1,6.336104125E-2,9.884703636E0,9.886697489E0
2.009784375E0,2.312855273E-1,1.016890332E-1,9.867935181E0,9.871169049E0
2.014821406E0,1.929575205E-1,6.815206259E-2,9.872726440E0,9.874847071E0
2.019858489E0,1.977485269E-1,8.971153945E-2,9.920636177E0,9.923012385E0
2.024895520E0,2.049350291E-1,7.773404568E-2,9.887099266E0,9.889528444E0
2.029929895E0,2.097260207E-1,5.617456511E-2,9.899076462E0,9.901457235E0
2.034966979E0,2.169125229E-1,4.659258202E-2,9.903867722E0,9.906352394E0
2.040004062E0,2.169125229E-1,6.575655192E-2,9.887099266E0,9.889697006E0
2.045041145E0,2.121215165E-1,8.012955636E-2,9.935009003E0,9.937596297E0
2.050078229E0,2.001440227E-1,8.252506703E-2,9.891890526E0,9.894259254E0
2.055115312E0,2.264945209E-1,7.533853501E-2,9.896680832E0,9.899558937E0
2.060212968E0,2.193080187E-1,9.689807147E-2,9.872726440E0,9.875637327E0
2.065250052E0,2.049350291E-1,6.336104125E-2,9.896680832E0,9.899005227E0
2.070287135E0,1.737935245E-1,4.419707134E-2,9.896680832E0,9.898305363E0
2.075324218E0,2.097260207E-1,1.064800546E-1,9.884703636E0,9.887501655E0
2.080361302E0,2.097260207E-1,6.336104125E-2,9.908658981E0,9.911080790E0
2.085398385E0,2.264945209E-1,6.815206259E-2,9.882308006E0,9.885138138E0
2.090420885E0,2.001440227E-1,1.064800546E-1,9.899076462E0,9.901672103E0
2.095457968E0,2.049350291E-1,6.575655192E-2,9.889494896E0,9.891836613E0
2.100495104E0,2.049350291E-1,6.815206259E-2,9.879912376E0,9.882272595E0
2.105532135E0,2.121215165E-1,9.210705012E-2,9.901472092E0,9.904172294E0
2.110569218E0,2.288900167E-1,6.336104125E-2,9.908658981E0,9.911504834E0
2.115606302E0,2.145170271E-1,6.336104125E-2,9.911054611E0,9.913578349E0
2.120585520E0,2.217035294E-1,6.575655192E-2,9.891890526E0,9.894593198E0
2.125622552E0,2.169125229E-1,4.898803309E-2,9.908658981E0,9.911154003E0
2.130659635E0,2.001440227E-1,7.054757327E-2,9.906263351E0,9.908536127E0
2.135696770E0,2.264945209E-1,7.533853501E-2,9.882308006E0,9.885190296E0
2.140733854E0,2.336810231E-1,6.575655192E-2,9.877516747E0,9.880499371E0
2.145770937E0,2.073305249E-1,4.659258202E-2,9.896680832E0,9.898961981E0
2.150802343E0,1.977485269E-1,8.012955636E-2,9.882308006E0,9.884611108E0
2.155839427E0,1.737935245E-1,9.210705012E-2,9.908658981E0,9.910611016E0
2.160876510E0,2.025395185E-1,8.012955636E-2,9.877516747E0,9.879918020E0
2.165913593E0,2.121215165E-1,6.336104125E-2,9.908658981E0,9.911131770E0
2.170950677E0,2.193080187E-1,6.336104125E-2,9.903867722E0,9.906498194E0
2.175987812E0,2.025395185E-1,7.773404568E-2,9.887099266E0,9.889479093E0
2.181047812E0,2.121215165E-1,8.252506703E-2,9.918240547E0,9.920851852E0
2.186084843E0,1.929575205E-1,9.929358214E-2,9.923031807E0,9.925404378E0
2.191121979E0,1.690025181E-1,1.160620376E-1,9.932613373E0,9.934729018E0
2.196159062E0,1.953530163E-1,8.731608838E-2,9.882308006E0,9.884624344E0
2.201196145E0,2.049350291E-1,1.016890332E-1,9.908658981E0,9.911299705E0
2.206233229E0,2.193080187E-1,1.064800546E-1,9.925427437E0,9.928421013E0
2.211242864E0,2.073305249E-1,9.450256079E-2,9.901472092E0,9.904093409E0
2.216279948E0,1.785845160E-1,8.971153945E-2,9.851166725E0,9.853193718E0
2.221317031E0,1.929575205E-1,5.138354376E-2,9.923031807E0,9.925040711E0
2.226354114E0,1.953530163E-1,9.689807147E-2,9.911054611E0,9.913453260E0
2.231391250E0,2.264945209E-1,8.252506703E-2,9.891890526E0,9.894827352E0
2.236428281E0,2.097260207E-1,1.232485697E-1,9.894286156E0,9.897276077E0
2.241493645E0,1.785845160E-1,1.064800546E-1,9.896680832E0,9.898864678E0
2.246530781E0,2.121215165E-1,8.971153945E-2,9.911054611E0,9.913730237E0
2.251567812E0,2.049350291E-1,4.898803309E-2,9.927823067E0,9.930058864E0
2.256604895E0,2.240990251E-1,5.138354376E-2,9.932613373E0,9.935273980E0
2.261642031E0,2.384720147E-1,7.773404568E-2,9.932613373E0,9.935779783E0
2.266679114E0,1.977485269E-1,9.210705012E-2,9.894286156E0,9.896690695E0
2.271695573E0,1.977485269E-1,5.377905443E-2,9.923031807E0,9.925147702E0
2.276732656E0,2.240990251E-1,5.377905443E-2,9.927823067E0,9.930497641E0
2.281769739E0,2.288900167E-1,7.294308394E-2,9.918240547E0,9.921149474E0
2.286806823E0,2.121215165E-1,8.492057770E-2,9.915844917E0,9.918477074E0
2.291843906E0,2.097260207E-1,8.252506703E-2,9.877516747E0,9.880087675E0
2.296881041E0,2.145170271E-1,7.773404568E-2,9.906263351E0,9.908890640E0
2.301938281E0,2.025395185E-1,5.857007578E-2,9.908658981E0,9.910901852E0
2.306975312E0,2.025395185E-1,9.450256079E-2,9.903867722E0,9.906389294E0
2.312012448E0,1.737935245E-1,9.929358214E-2,9.891890526E0,9.893915382E0
2.317049531E0,1.905620247E-1,9.689807147E-2,9.908658981E0,9.910964934E0
2.322086614E0,2.025395185E-1,8.252506703E-2,9.915844917E0,9.918256554E0
2.327123698E0,2.049350291E-1,9.210705012E-2,9.915844917E0,9.918390116E0
2.332182708E0,2.097260207E-1,6.336104125E-2,9.896680832E0,9.899105571E0
2.337219791E0,2.025395185E-1,1.112710759E-1,9.903867722E0,9.906563448E0
2.342256875E0,2.121215165E-1,8.492057770E-2,9.882308006E0,9.884949093E0
2.347293958E0,1.857710183E-1,6.575655192E-2,9.889494896E0,9.891458138E0
2.352331041E0,2.121215165E-1,4.180156067E-2,9.956568718E0,9.958915782E0
2.357368125E0,1.953530163E-1,6.815206259E-2,9.903867722E0,9.906028637E0
2.362422604E0,2.097260207E-1,5.617456511E-2,9.887099266E0,9.889482923E0
2.367459687E0,1.833755225E-1,5.857007578E-2,9.920636177E0,9.922503676E0
2.372496770E0,1.761890203E-1,4.659258202E-2,9.927823067E0,9.929495671E0
2.377533854E0,2.073305249E-1,5.857007578E-2,9.863143921E0,9.865496663E0
2.382570885E0,2.121215165E-1,2.263753675E-2,9.906263351E0,9.908560016E0
2.387607968E0,2.193080187E-1,2.742855810E-2,9.894286156E0,9.896754360E0
2.392605833E0,2.001440227E-1,6.096558645E-2,9.913449287E0,9.915656872E0
2.397642968E0,1.977485269E-1,4.419707134E-2,9.903867722E0,9.905940324E0
2.402680000E0,2.217035294E-1,9.689807147E-2,9.891890526E0,9.894849158E0
2.407717083E0,1.977485269E-1,7.773404568E-2,9.894286156E0,9.896567364E0
2.412754218E0,2.121215165E-1,6.575655192E-2,9.853562355E0,9.856064658E0
2.417791302E0,2.169125229E-1,9.689807147E-2,9.884703636E0,9.887558154E0
2.422834739E0,2.264945209E-1,1.016890332E-1,9.884703636E0,9.887821115E0
2.427871875E0,2.121215165E-1,8.492057770E-2,9.899076462E0,9.901713076E0
2.432908958E0,1.905620247E-1,1.280395836E-1,9.920636177E0,9.923292305E0
2.437946041E0,1.785845160E-1,9.210705012E-2,9.875122070E0,9.877166195E0
2.442983125E0,2.001440227E-1,8.492057770E-2,9.908658981E0,9.911043938E0
2.448020208E0,2.217035294E-1,1.136665866E-1,9.901472092E0,9.904606107E0
2.453025156E0,1.977485269E-1,9.450256079E-2,9.899076462E0,9.901502412E0
2.458062239E0,1.881665289E-1,8.012955636E-2,9.899076462E0,9.901188928E0
2.463099375E0,1.809800267E-1,1.040845439E-1,9.908658981E0,9.910858195E0
2.468136406E0,1.905620247E-1,7.054757327E-2,9.913449287E0,9.915531636E0
2.473173489E0,1.977485269E-1,5.857007578E-2,9.903867722E0,9.906014879E0
2.478210625E0,2.360765189E-1,8.252506703E-2,9.913449287E0,9.916603213E0
2.483280781E0,2.121215165E-1,6.096558645E-2,9.896680832E0,9.899141570E0
2.488317916E0,2.169125229E-1,4.180156067E-2,9.932613373E0,9.935069543E0
2.493354948E0,2.097260207E-1,5.857007578E-2,9.915844917E0,9.918235523E0
2.498392083E0,1.929575205E-1,8.012955636E-2,9.908658981E0,9.910861525E0
2.503429166E0,2.049350291E-1,9.450256079E-2,9.896680832E0,9.899253537E0
2.508466250E0,2.288900167E-1,7.054757327E-2,9.872726440E0,9.875631371E0
2.513493125E0,2.169125229E-1,9.210705012E-2,9.867935181E0,9.870748679E0
2.518530208E0,2.264945209E-1,7.773404568E-2,9.872726440E0,9.875630092E0
2.523567291E0,2.169125229E-1,8.971153945E-2,9.935009003E0,9.937781598E0
2.528604375E0,2.145170271E-1,8.971153945E-2,9.915844917E0,9.918570771E0
2.533641510E0,2.145170271E-1,7.294308394E-2,9.927823067E0,9.930408304E0
2.538678593E0,2.217035294E-1,1.280395836E-1,9.903867722E0,9.907176310E0
2.543719323E0,2.169125229E-1,1.040845439E-1,9.894286156E0,9.897210878E0
2.548756406E0,1.977485269E-1,7.533853501E-2,9.903867722E0,9.906128215E0
2.553793489E0,2.145170271E-1,1.232485697E-1,9.891890526E0,9.894983878E0
2.558830625E0,1.929575205E-1,9.210705012E-2,9.901472092E0,9.903780384E0
2.563867708E0,1.977485269E-1,1.088755652E-1,9.882308006E0,9.884885933E0
2.568904791E0,2.145170271E-1,1.088755652E-1,9.855957985E0,9.858893409E0
2.573946666E0,2.001440227E-1,1.040845439E-1,9.920636177E0,9.923200763E0
2.578983802E0,2.025395185E-1,1.016890332E-1,9.906263351E0,9.908855459E0
2.584020885E0,1.881665289E-1,6.575655192E-2,9.872726440E0,9.874738373E0
2.589057968E0,2.145170271E-1,2.503304742E-2,9.913449287E0,9.915801580E0
2.594095052E0,2.073305249E-1,9.450256079E-2,9.918240547E0,9.920857434E0
2.599132135E0,2.049350291E-1,7.533853501E-2,9.875122070E0,9.877535632E0
2.604183229E0,1.929575205E-1,6.575655192E-2,9.927823067E0,9.929915779E0
2.609220312E0,2.121215165E-1,6.575655192E-2,9.899076462E0,9.901567263E0
2.614257395E0,2.169125229E-1,7.054757327E-2,9.903867722E0,9.906494024E0
2.619294531E0,2.264945209E-1,1.040845439E-1,9.903867722E0,9.907004048E0
2.624331614E0,2.264945209E-1,7.773404568E-2,9.889494896E0,9.892393626E0
2.629368698E0,2.193080187E-1,1.088755652E-1,9.879912376E0,9.882945839E0
2.634360573E0,2.001440227E-1,9.210705012E-2,9.891890526E0,9.894343814E0
2.639397656E0,2.097260207E-1,9.210705012E-2,9.891890526E0,9.894542278E0
2.644434739E0,2.217035294E-1,8.731608838E-2,9.896680832E0,9.899548881E0
2.649471823E0,2.073305249E-1,1.088755652E-1,9.908658981E0,9.911425863E0
2.654508906E0,2.121215165E-1,9.929358214E-2,9.901472092E0,9.904241735E0
2.659545989E0,2.049350291E-1,8.971153945E-2,9.906263351E0,9.908789034E0
2.664626354E0,2.121215165E-1,9.689807147E-2,9.913449287E0,9.916191887E0
2.669663489E0,1.977485269E-1,9.929358214E-2,9.913449287E0,9.915918539E0
2.674700520E0,1.929575205E-1,7.294308394E-2,9.918240547E0,9.920385519E0
2.679737656E0,2.288900167E-1,9.450256079E-2,9.884703636E0,9.887804981E0
2.684774739E0,2.193080187E-1,8.731608838E-2,9.882308006E0,9.885126789E0
2.689811823E0,1.905620247E-1,4.898803309E-2,9.918240547E0,9.920191997E0
2.694845104E0,2.025395185E-1,8.252506703E-2,9.891890526E0,9.894308001E0
2.699882187E0,2.145170271E-1,6.336104125E-2,9.925427437E0,9.927947521E0
2.704919270E0,1.594205201E-1,5.377905443E-2,9.927823067E0,9.929248609E0
2.709956354E0,2.073305249E-1,7.773404568E-2,9.918240547E0,9.920711874E0
2.714993437E0,2.025395185E-1,6.096558645E-2,9.901472092E0,9.903731047E0
2.720030520E0,1.881665289E-1,8.252506703E-2,9.858353615E0,9.860494563E0
2.725055416E0,1.953530163E-1,4.419707134E-2,9.884703636E0,9.886732633E0
2.730092552E0,1.713980287E-1,3.461508825E-2,9.887099266E0,9.888645377E0
2.735129635E0,2.145170271E-1,8.252506703E-2,9.879912376E0,9.882585517E0
2.740166718E0,2.408675253E-1,5.617456511E-2,9.913449287E0,9.916534149E0
2.745203802E0,2.097260207E-1,2.982406877E-2,9.908658981E0,9.910923130E0
2.750240885E0,1.977485269E-1,7.773404568E-2,9.901472092E0,9.903751645E0
2.755276093E0,2.001440227E-1,7.773404568E-2,9.865539551E0,9.867875700E0
2.760313125E0,2.049350291E-1,5.857007578E-2,9.896680832E0,9.898975720E0
2.765350260E0,2.145170271E-1,7.533853501E-2,9.908658981E0,9.911267137E0
2.770387291E0,2.240990251E-1,1.040845439E-1,9.901472092E0,9.904554687E0
2.775424427E0,2.240990251E-1,8.971153945E-2,9.884703636E0,9.887650606E0
2.780461510E0,2.217035294E-1,1.064800546E-1,9.920636177E0,9.923684427E0
2.785522916E0,2.193080187E-1,1.064800546E-1,9.891890526E0,9.894894248E0
2.790560000E0,2.193080187E-1,7.054757327E-2,9.884703636E0,9.887387873E0
2.795597135E0,2.217035294E-1,8.492057770E-2,9.925427437E0,9.928266403E0
2.800634166E0,2.193080187E-1,1.040845439E-1,9.899076462E0,9.902052534E0
2.805671302E0,2.097260207E-1,7.054757327E-2,9.875122070E0,9.877600815E0
2.810708333E0,2.217035294E-1,7.533853501E-2,9.915844917E0,9.918609216E0
2.815709218E0,2.264945209E-1,1.016890332E-1,9.918240547E0,9.921347488E0
2.820746354E0,1.953530163E-1,6.575655192E-2,9.879912376E0,9.882062299E0
2.825783437E0,1.761890203E-1,6.096558645E-2,9.901472092E0,9.903227199E0
2.830820520E0,2.073305249E-1,6.096558645E-2,9.920636177E0,9.922989716E0
2.835857604E0,2.169125229E-1,5.138354376E-2,9.894286156E0,9.896796949E0
2.840894687E0,1.881665289E-1,2.503304742E-2,9.899076462E0,9.900896328E0
2.845926562E0,2.121215165E-1,5.138354376E-2,9.903867722E0,9.906272339E0
2.850963645E0,2.217035294E-1,5.138354376E-2,9.937404633E0,9.940010239E0
2.856000729E0,2.001440227E-1,6.815206259E-2,9.872726440E0,9.874990111E0
2.861037812E0,2.145170271E-1,7.054757327E-2,9.901472092E0,9.904046855E0
2.866074895E0,1.905620247E-1,5.617456511E-2,9.889494896E0,9.891490220E0
2.871112031E0,2.025395185E-1,7.054757327E-2,9.889494896E0,9.891820283E0
2.876179427E0,2.240990251E-1,9.689807147E-2,9.906263351E0,9.909271578E0
2.881216510E0,1.977485269E-1,9.450256079E-2,9.915844917E0,9.918266766E0
2.886253593E0,1.833755225E-1,8.731608838E-2,9.901472092E0,9.903554931E0
2.891290677E0,2.217035294E-1,1.040845439E-1,9.913449287E0,9.916474314E0
2.896327760E0,2.145170271E-1,1.088755652E-1,9.887099266E0,9.890025447E0
2.901364895E0,2.312855273E-1,1.136665866E-1,9.906263351E0,9.909614860E0
2.906378333E0,2.001440227E-1,9.689807147E-2,9.925427437E0,9.927918043E0
2.911415416E0,1.977485269E-1,6.096558645E-2,9.896680832E0,9.898844012E0
2.916452500E0,1.905620247E-1,5.857007578E-2,9.899076462E0,9.901083735E0
2.921489583E0,1.881665289E-1,8.012955636E-2,9.887099266E0,9.889214291E0
2.926526666E0,2.073305249E-1,8.492057770E-2,9.899076462E0,9.901611598E0
2.931563802E0,1.977485269E-1,6.575655192E-2,9.939800262E0,9.941984594E0
2.936624427E0,2.145170271E-1,5.617456511E-2,9.896680832E0,9.899164845E0
2.941661510E0,2.073305249E-1,5.857007578E-2,9.884703636E0,9.887051248E0
2.946698593E0,2.025395185E-1,8.492057770E-2,9.937404633E0,9.939831215E0
2.951735677E0,1.953530163E-1,5.857007578E-2,9.930217743E0,9.932311799E0
2.956772812E0,2.001440227E-1,5.377905443E-2,9.879912376E0,9.882085730E0
2.961809895E0,2.097260207E-1,2.503304742E-2,9.884703636E0,9.886959979E0
2.966841614E0,2.264945209E-1,3.461508825E-2,9.889494896E0,9.892148769E0
2.971878750E0,1.929575205E-1,7.773404568E-2,9.889494896E0,9.891682591E0
2.976915833E0,2.193080187E-1,7.533853501E-2,9.901472092E0,9.904187068E0
2.981952916E0,2.193080187E-1,5.617456511E-2,9.920636177E0,9.923218921E0
2.986990000E0,1.929575205E-1,8.492057770E-2,9.889494896E0,9.891741677E0
2.992027083E0,1.809800267E-1,7.294308394E-2,9.891890526E0,9.893814868E0
2.997066614E0,2.121215165E-1,8.012955636E-2,9.925427437E0,9.928017228E0
3.002103750E0,2.336810231E-1,1.088755652E-1,9.872726440E0,9.876091741E0
3.007140833E0,2.360765189E-1,7.533853501E-2,9.853562355E0,9.856677894E0
3.012177916E0,2.097260207E-1,6.575655192E-2,9.937404633E0,9.939834997E0
3.017215000E0,1.953530163E-1,8.492057770E-2,9.927823067E0,9.930108013E0
3.022252083E0,2.121215165E-1,1.040845439E-1,9.911054611E0,9.913870719E0
3.027262968E0,2.121215165E-1,1.232485697E-1,9.887099266E0,9.890142448E0
3.032300052E0,2.169125229E-1,8.492057770E-2,9.879912376E0,9.882658100E0
3.037337187E0,1.905620247E-1,8.731608838E-2,9.903867722E0,9.906085697E0
3.042374218E0,1.929575205E-1,5.377905443E-2,9.901472092E0,9.903498088E0
3.047411302E0,2.097260207E-1,7.773404568E-2,9.932613373E0,9.935131403E0
3.052448437E0,1.857710183E-1,8.971153945E-2,9.923031807E0,9.925176032E0
3.057506093E0,1.833755225E-1,4.898803309E-2,9.923031807E0,9.924846933E0
3.062543229E0,1.953530163E-1,7.294308394E-2,9.925427437E0,9.927617705E0
3.067580312E0,2.408675253E-1,7.773404568E-2,9.920636177E0,9.923864263E0
3.072617395E0,2.217035294E-1,6.815206259E-2,9.932613373E0,9.935321111E0
3.077654479E0,1.977485269E-1,4.898803309E-2,9.915844917E0,9.917937524E0
3.082691614E0,1.953530163E-1,7.054757327E-2,9.932613373E0,9.934784757E0
3.087728125E0,2.169125229E-1,5.377905443E-2,9.920636177E0,9.923152996E0
3.092765260E0,2.193080187E-1,7.054757327E-2,9.872726440E0,9.875413932E0
3.097802343E0,2.480540127E-1,5.138354376E-2,9.867935181E0,9.871186139E0
3.102839479E0,2.073305249E-1,7.533853501E-2,9.899076462E0,9.901534055E0
3.107876562E0,2.169125229E-1,8.012955636E-2,9.956568718E0,9.959253608E0
3.112913645E0,2.264945209E-1,8.971153945E-2,9.932613373E0,9.935600452E0
3.117961145E0,2.193080187E-1,9.929358214E-2,9.925427437E0,9.928346540E0
3.122998229E0,2.240990251E-1,1.136665866E-1,9.887099266E0,9.890291824E0
3.128035312E0,2.097260207E-1,1.136665866E-1,9.879912376E0,9.882791795E0
3.133072448E0,2.097260207E-1,1.184575483E-1,9.923031807E0,9.925954737E0
3.138109479E0,2.169125229E-1,5.857007578E-2,9.887099266E0,9.889651834E0
3.143146614E0,2.193080187E-1,7.533853501E-2,9.851166725E0,9.853895562E0
3.148191198E0,2.121215165E-1,9.689807147E-2,9.896680832E0,9.899428078E0
3.153228333E0,2.217035294E-1,7.054757327E-2,9.894286156E0,9.897021165E0
3.158265416E0,2.097260207E-1,6.575655192E-2,9.925427437E0,9.927860733E0
3.163302500E0,2.240990251E-1,4.419707134E-2,9.901472092E0,9.904106388E0
3.168339583E0,2.240990251E-1,4.180156067E-2,9.915844917E0,9.918465011E0
3.173376718E0,2.169125229E-1,6.336104125E-2,9.891890526E0,9.894471377E0
3.178381875E0,2.145170271E-1,5.857007578E-2,9.899076462E0,9.901573754E0
3.183419010E0,2.169125229E-1,6.096558645E-2,9.913449287E0,9.916009511E0
3.188456093E0,2.097260207E-1,7.773404568E-2,9.915844917E0,9.918367205E0
3.193493177E0,2.169125229E-1,6.336104125E-2,9.906263351E0,9.908840460E0
3.198530260E0,2.169125229E-1,5.138354376E-2,9.920636177E0,9.923140303E0
3.203567343E0,2.217035294E-1,6.815206259E-2,9.891890526E0,9.894609408E0
3.208624479E0,2.360765189E-1,9.210705012E-2,9.923031807E0,9.926266976E0
3.213661614E0,2.217035294E-1,8.252506703E-2,9.911054611E0,9.913877463E0
3.218698698E0,1.761890203E-1,9.689807147E-2,9.954173088E0,9.956203778E0
3.223735781E0,1.761890203E-1,1.040845439E-1,9.946987152E0,9.949091897E0
3.228772864E0,2.073305249E-1,8.971153945E-2,9.879912376E0,9.882494760E0
3.233810000E0,2.049350291E-1,8.731608838E-2,9.915844917E0,9.918346782E0
3.238847395E0,2.240990251E-1,9.210705012E-2,9.913449287E0,9.916409676E0
3.243884531E0,1.953530163E-1,7.294308394E-2,9.906263351E0,9.908457856E0
3.248921614E0,1.977485269E-1,1.280395836E-1,9.899076462E0,9.901879287E0
3.253958698E0,2.240990251E-1,1.280395836E-1,9.896680832E0,9.900045757E0
3.258995833E0,2.049350291E-1,8.731608838E-2,9.887099266E0,9.889608403E0
3.264032916E0,1.953530163E-1,6.096558645E-2,9.889494896E0,9.891612048E0
3.269064583E0,2.097260207E-1,7.054757327E-2,9.896680832E0,9.899154179E0
3.274101718E0,1.905620247E-1,8.012955636E-2,9.913449287E0,9.915604440E0
3.279138802E0,1.929575205E-1,5.617456511E-2,9.911054611E0,9.913091934E0
3.284175885E0,2.073305249E-1,6.336104125E-2,9.891890526E0,9.894265953E0
3.289212968E0,2.049350291E-1,6.575655192E-2,9.911054611E0,9.913391236E0
3.294250104E0,2.001440227E-1,4.898803309E-2,9.913449287E0,9.915590463E0
3.299270520E0,2.240990251E-1,6.336104125E-2,9.908658981E0,9.911395351E0
3.304307656E0,1.953530163E-1,3.701053932E-2,9.891890526E0,9.893888556E0
3.309344739E0,1.785845160E-1,8.492057770E-2,9.908658981E0,9.910632005E0
3.314381823E0,2.025395185E-1,7.294308394E-2,9.915844917E0,9.918181455E0
3.319418906E0,1.929575205E-1,6.575655192E-2,9.920636177E0,9.922730405E0
3.324456041E0,1.977485269E-1,4.180156067E-2,9.879912376E0,9.881979580E0
3.329513750E0,2.336810231E-1,6.575655192E-2,9.899076462E0,9.902052592E0
3.334550885E0,2.169125229E-1,5.617456511E-2,9.901472092E0,9.904007078E0
3.339587968E0,2.312855273E-1,8.252506703E-2,9.918240547E0,9.921280106E0
3.344625104E0,2.145170271E-1,8.252506703E-2,9.920636177E0,9.923298348E0
3.349662135E0,1.929575205E-1,1.136665866E-1,9.865539551E0,9.868081036E0
3.354699270E0,2.240990251E-1,9.689807147E-2,9.932613373E0,9.935613621E0
3.359739531E0,2.073305249E-1,8.492057770E-2,9.908658981E0,9.911191667E0
3.364776666E0,2.240990251E-1,1.088755652E-1,9.870330811E0,9.873474797E0
3.369813750E0,1.977485269E-1,8.731608838E-2,9.879912376E0,9.882276921E0
3.374850885E0,2.049350291E-1,1.064800546E-1,9.894286156E0,9.896981100E0
3.379887968E0,1.953530163E-1,9.450256079E-2,9.879912376E0,9.882295386E0
3.384925052E0,1.881665289E-1,7.294308394E-2,9.899076462E0,9.901133376E0
3.389957604E0,1.953530163E-1,4.659258202E-2,9.937404633E0,9.939433812E0
3.394994687E0,2.097260207E-1,7.773404568E-2,9.911054611E0,9.913578118E0
3.400031823E0,2.073305249E-1,8.731608838E-2,9.882308006E0,9.884868314E0
3.405068906E0,1.881665289E-1,8.252506703E-2,9.901472092E0,9.903603718E0
3.410105989E0,2.264945209E-1,6.336104125E-2,9.918240547E0,9.921028674E0
3.415143073E0,1.857710183E-1,7.294308394E-2,9.901472092E0,9.903483284E0
3.420203906E0,2.121215165E-1,7.054757327E-2,9.891890526E0,9.894416136E0
3.425240989E0,2.001440227E-1,4.898803309E-2,9.901472092E0,9.903615857E0
3.430278125E0,2.145170271E-1,3.701053932E-2,9.935009003E0,9.937393583E0
3.435315156E0,1.953530163E-1,4.898803309E-2,9.901472092E0,9.903520193E0
3.440352291E0,2.145170271E-1,6.336104125E-2,9.884703636E0,9.887234100E0
3.445389375E0,1.809800267E-1,6.336104125E-2,9.860748291E0,9.862612496E0
3.450441562E0,2.121215165E-1,9.689807147E-2,9.923031807E0,9.925771759E0
3.455478645E0,2.169125229E-1,1.160620376E-1,9.923031807E0,9.926080882E0
3.460515729E0,2.193080187E-1,9.929358214E-2,9.899076462E0,9.902003334E0
3.465552864E0,2.073305249E-1,7.533853501E-2,9.937404633E0,9.939852749E0
3.470589895E0,2.001440227E-1,8.731608838E-2,9.894286156E0,9.896695421E0
3.475627031E0,2.025395185E-1,8.012955636E-2,9.911054611E0,9.913447761E0
3.480606718E0,2.001440227E-1,8.971153945E-2,9.906263351E0,9.908691103E0
3.485643802E0,1.857710183E-1,9.210705012E-2,9.894286156E0,9.896458615E0
3.490680937E0,2.025395185E-1,1.064800546E-1,9.906263351E0,9.908905785E0
3.495718020E0,1.857710183E-1,6.815206259E-2,9.913449287E0,9.915423962E0
3.500755104E0,1.977485269E-1,7.773404568E-2,9.923031807E0,9.925306409E0
3.505792187E0,1.857710183E-1,8.252506703E-2,9.903867722E0,9.905953619E0
3.510850104E0,2.145170271E-1,7.773404568E-2,9.889494896E0,9.892126639E0
3.515887239E0,2.097260207E-1,5.617456511E-2,9.887099266E0,9.889482923E0
3.520924323E0,1.977485269E-1,5.617456511E-2,9.891890526E0,9.894026392E0
3.525961406E0,2.073305249E-1,6.575655192E-2,9.913449287E0,9.915835146E0
3.530998489E0,2.121215165E-1,5.617456511E-2,9.918240547E0,9.920667652E0
3.536035573E0,2.217035294E-1,8.012955636E-2,9.918240547E0,9.921041717E0
3.541073750E0,2.097260207E-1,4.659258202E-2,9.894286156E0,9.896618332E0
3.546110885E0,1.977485269E-1,5.377905443E-2,9.920636177E0,9.922752583E0
3.551147968E0,2.073305249E-1,3.940605000E-2,9.935009003E0,9.937250257E0
3.556185104E0,2.121215165E-1,5.857007578E-2,9.911054611E0,9.913497339E0
3.561222187E0,2.264945209E-1,6.336104125E-2,9.879912376E0,9.882711316E0
3.566259270E0,2.312855273E-1,6.575655192E-2,9.889494896E0,9.892417612E0
3.571266718E0,2.097260207E-1,9.689807147E-2,9.918240547E0,9.920930893E0
3.576303854E0,2.217035294E-1,7.294308394E-2,9.925427437E0,9.928171179E0
3.581340885E0,2.288900167E-1,7.773404568E-2,9.899076462E0,9.902027470E0
3.586378020E0,1.881665289E-1,8.492057770E-2,9.884703636E0,9.886859164E0
3.591415104E0,1.833755225E-1,9.929358214E-2,9.884703636E0,9.886903043E0
3.596452239E0,2.169125229E-1,8.012955636E-2,9.903867722E0,9.906566894E0
3.601511510E0,1.905620247E-1,9.450256079E-2,9.906263351E0,9.908546725E0
3.606548645E0,2.025395185E-1,1.208530590E-1,9.896680832E0,9.899490856E0
3.611585729E0,2.001440227E-1,1.304350346E-1,9.901472092E0,9.904353614E0
3.616622864E0,2.121215165E-1,5.857007578E-2,9.899076462E0,9.901522145E0
3.621659895E0,1.881665289E-1,7.294308394E-2,9.877516747E0,9.879578150E0
3.626697031E0,2.001440227E-1,7.294308394E-2,9.903867722E0,9.906158396E0
3.631739323E0,2.217035294E-1,4.898803309E-2,9.925427437E0,9.928024078E0
3.636776458E0,2.121215165E-1,4.419707134E-2,9.913449287E0,9.915816945E0
3.641813541E0,2.097260207E-1,5.377905443E-2,9.932613373E0,9.934972854E0
3.646850677E0,2.145170271E-1,5.377905443E-2,9.894286156E0,9.896757463E0
3.651887708E0,1.977485269E-1,5.138354376E-2,9.896680832E0,9.898789635E0
3.656924843E0,2.097260207E-1,7.054757327E-2,9.903867722E0,9.906339274E0
3.661974583E0,2.097260207E-1,3.461508825E-2,9.891890526E0,9.894174113E0
3.667011666E0,2.193080187E-1,2.503304742E-2,9.908658981E0,9.911117266E0
3.672048750E0,2.073305249E-1,8.252506703E-2,9.891890526E0,9.894407234E0
3.677085885E0,1.881665289E-1,4.659258202E-2,9.903867722E0,9.905764653E0
3.682122968E0,2.097260207E-1,4.898803309E-2,9.879912376E0,9.882259529E0
3.687160052E0,1.953530163E-1,9.689807147E-2,9.896680832E0,9.899082964E0
3.692200156E0,1.737935245E-1,9.450256079E-2,9.918240547E0,9.920213227E0
3.697237239E0,1.857710183E-1,4.659258202E-2,9.896680832E0,9.898533893E0
3.702274323E0,2.145170271E-1,7.294308394E-2,9.872726440E0,9.875326102E0
3.707311458E0,2.001440227E-1,7.054757327E-2,9.903867722E0,9.906141047E0
3.712348489E0,2.121215165E-1,8.492057770E-2,9.923031807E0,9.925662058E0
3.717385625E0,1.857710183E-1,8.252506703E-2,9.920636177E0,9.922718550E0
3.722399948E0,1.761890203E-1,6.815206259E-2,9.927823067E0,9.929620240E0
3.727437083E0,1.905620247E-1,6.336104125E-2,9.915844917E0,9.917878247E0
3.732474166E0,2.169125229E-1,8.012955636E-2,9.894286156E0,9.896987942E0
3.737511250E0,2.121215165E-1,8.731608838E-2,9.915844917E0,9.918497873E0
3.742548333E0,1.857710183E-1,7.054757327E-2,9.899076462E0,9.901070782E0
3.747585416E0,1.881665289E-1,6.336104125E-2,9.896680832E0,9.898672272E0
3.752629323E0,2.025395185E-1,2.742855810E-2,9.896680832E0,9.898791142E0
3.757666458E0,1.833755225E-1,4.419707134E-2,9.920636177E0,9.922429245E0
3.762703593E0,1.833755225E-1,4.659258202E-2,9.918240547E0,9.920045010E0
3.767740625E0,2.312855273E-1,4.419707134E-2,9.903867722E0,9.906666555E0
3.772777708E0,1.929575205E-1,2.982406877E-2,9.887099266E0,9.889026948E0
3.777814843E0,1.953530163E-1,7.054757327E-2,9.908658981E0,9.910835614E0
3.782833177E0,2.049350291E-1,7.294308394E-2,9.879912376E0,9.882306797E0
3.787870312E0,2.073305249E-1,6.815206259E-2,9.887099266E0,9.889507700E0
3.792907343E0,2.025395185E-1,8.971153945E-2,9.896680832E0,9.899159657E0
3.797944479E0,2.049350291E-1,8.731608838E-2,9.906263351E0,9.908767635E0
3.802981562E0,2.288900167E-1,5.857007578E-2,9.872726440E0,9.875553071E0
3.808018698E0,1.953530163E-1,8.971153945E-2,9.877516747E0,9.879855669E0
3.813074895E0,2.025395185E-1,4.659258202E-2,9.930217743E0,9.932392338E0
3.818112031E0,2.217035294E-1,7.294308394E-2,9.877516747E0,9.880273793E0
3.823149114E0,1.881665289E-1,1.208530590E-1,9.927823067E0,9.930341532E0
3.828186250E0,1.977485269E-1,1.208530590E-1,9.932613373E0,9.935316721E0
3.833223281E0,1.713980287E-1,1.352260560E-1,9.894286156E0,9.896694494E0
3.838260416E0,1.881665289E-1,1.136665866E-1,9.896680832E0,9.899122094E0
3.843280000E0,2.217035294E-1,1.280395836E-1,9.927823067E0,9.931123674E0
3.848317135E0,2.217035294E-1,8.492057770E-2,9.889494896E0,9.892344174E0
3.853354166E0,2.001440227E-1,7.294308394E-2,9.918240547E0,9.920527903E0
3.858391302E0,1.905620247E-1,7.054757327E-2,9.925427437E0,9.927507273E0
3.863428385E0,1.905620247E-1,6.336104125E-2,9.899076462E0,9.901113236E0
3.868465468E0,2.097260207E-1,8.492057770E-2,9.882308006E0,9.884897978E0
3.873526666E0,2.145170271E-1,7.054757327E-2,9.906263351E0,9.908836869E0
3.878563802E0,1.857710183E-1,7.533853501E-2,9.915844917E0,9.917871102E0
3.883600885E0,1.929575205E-1,7.533853501E-2,9.841585159E0,9.843764877E0
3.888638020E0,2.049350291E-1,5.857007578E-2,9.877516747E0,9.879816086E0
3.893675052E0,1.953530163E-1,4.898803309E-2,9.913449287E0,9.915494915E0
3.898712187E0,2.049350291E-1,5.377905443E-2,9.901472092E0,9.903738695E0
3.903743177E0,1.977485269E-1,6.815206259E-2,9.887099266E0,9.889311456E0
3.908780312E0,1.857710183E-1,5.377905443E-2,9.903867722E0,9.905755847E0
3.913817395E0,1.977485269E-1,7.533853501E-2,9.915844917E0,9.918102681E0
3.918854531E0,1.809800267E-1,6.815206259E-2,9.913449287E0,9.915335357E0
3.923891562E0,2.169125229E-1,9.450256079E-2,9.879912376E0,9.882745081E0
3.928928698E0,2.049350291E-1,8.971153945E-2,9.896680832E0,9.899208959E0
3.933970104E0,2.312855273E-1,8.252506703E-2,9.913449287E0,9.916490314E0
3.939007187E0,2.312855273E-1,8.252506703E-2,9.879912376E0,9.882963723E0
3.944044270E0,1.953530163E-1,1.064800546E-1,9.935009003E0,9.937499921E0
3.949081406E0,2.169125229E-1,1.064800546E-1,9.894286156E0,9.897236360E0
3.954118489E0,2.049350291E-1,1.112710759E-1,9.891890526E0,9.894638841E0
3.959155573E0,2.217035294E-1,9.689807147E-2,9.908658981E0,9.911612608E0
3.964203125E0,1.929575205E-1,1.040845439E-1,9.903867722E0,9.906294062E0
3.969240260E0,2.217035294E-1,7.773404568E-2,9.882308006E0,9.885100231E0
3.974277343E0,2.288900167E-1,9.210705012E-2,9.872726440E0,9.875808915E0
3.979314479E0,1.929575205E-1,3.461508825E-2,9.906263351E0,9.908202884E0
3.984351510E0,2.001440227E-1,7.054757327E-2,9.891890526E0,9.894166603E0
3.989388645E0,2.193080187E-1,6.575655192E-2,9.882308006E0,9.884959861E0
3.994396198E0,2.073305249E-1,7.533853501E-2,9.884703636E0,9.887164802E0
3.999433333E0,1.785845160E-1,3.940605000E-2,9.903867722E0,9.905556073E0
4.004470364E0,1.977485269E-1,7.294308394E-2,9.896680832E0,9.898925026E0
4.009507500E0,2.145170271E-1,5.857007578E-2,9.915844917E0,9.918337987E0
4.014544583E0,2.145170271E-1,5.617456511E-2,9.877516747E0,9.880005578E0
4.019581666E0,2.073305249E-1,5.857007578E-2,9.915844917E0,9.918185158E0
4.024637916E0,2.097260207E-1,5.138354376E-2,9.889494896E0,9.891851928E0
4.029675052E0,1.905620247E-1,8.252506703E-2,9.932613373E0,9.934783978E0
4.034712135E0,1.857710183E-1,6.096558645E-2,9.930217743E0,9.932142372E0
4.039749218E0,2.001440227E-1,7.533853501E-2,9.891890526E0,9.894201923E0
4.044786302E0,2.193080187E-1,8.492057770E-2,9.925427437E0,9.928213199E0
4.049823437E0,2.049350291E-1,9.689807147E-2,9.920636177E0,9.923225774E0
4.054861093E0,2.073305249E-1,8.012955636E-2,9.915844917E0,9.918335905E0
4.059898177E0,2.264945209E-1,9.210705012E-2,9.911054611E0,9.914070152E0
4.064935260E0,2.169125229E-1,1.208530590E-1,9.918240547E0,9.921348298E0
4.069972343E0,2.001440227E-1,9.929358214E-2,9.882308006E0,9.884833250E0
4.075009427E0,2.097260207E-1,8.252506703E-2,9.887099266E0,9.889667704E0
4.080046562E0,2.169125229E-1,7.294308394E-2,9.889494896E0,9.892142388E0
4.085074323E0,2.217035294E-1,4.659258202E-2,9.858353615E0,9.860956309E0
4.090111406E0,2.097260207E-1,9.689807147E-2,9.887099266E0,9.889798084E0
4.095148489E0,1.905620247E-1,9.929358214E-2,9.935009003E0,9.937332488E0
4.100185573E0,1.953530163E-1,5.377905443E-2,9.901472092E0,9.903545051E0
4.105222708E0,1.881665289E-1,7.294308394E-2,9.906263351E0,9.908318774E0
4.110259791E0,2.025395185E-1,6.336104125E-2,9.918240547E0,9.920510694E0
4.115314323E0,2.312855273E-1,5.138354376E-2,9.884703636E0,9.887542629E0
4.120351406E0,2.145170271E-1,7.054757327E-2,9.875122070E0,9.877703702E0
4.125388489E0,2.073305249E-1,5.617456511E-2,9.887099266E0,9.889432412E0
4.130425573E0,1.713980287E-1,5.617456511E-2,9.911054611E0,9.912695717E0
4.135462708E0,1.953530163E-1,8.731608838E-2,9.932613373E0,9.934917982E0
4.140499791E0,2.217035294E-1,5.857007578E-2,9.915844917E0,9.918496022E0
4.145520416E0,2.169125229E-1,7.773404568E-2,9.932613373E0,9.935285705E0
4.150557552E0,1.977485269E-1,8.731608838E-2,9.908658981E0,9.911016668E0
4.155594635E0,2.073305249E-1,9.450256079E-2,9.908658981E0,9.911278398E0
4.160631770E0,2.217035294E-1,8.012955636E-2,9.887099266E0,9.889909256E0
4.165668802E0,2.169125229E-1,9.929358214E-2,9.894286156E0,9.897161653E0
4.170705937E0,2.217035294E-1,7.054757327E-2,9.935009003E0,9.937732805E0
4.175771406E0,2.121215165E-1,7.294308394E-2,9.923031807E0,9.925566809E0
4.180808541E0,1.905620247E-1,8.731608838E-2,9.906263351E0,9.908480790E0
4.185845625E0,1.905620247E-1,8.731608838E-2,9.908658981E0,9.910875884E0
4.190882708E0,2.145170271E-1,8.252506703E-2,9.937404633E0,9.940062312E0
4.195919843E0,1.737935245E-1,1.064800546E-1,9.891890526E0,9.893990113E0
4.200956927E0,2.025395185E-1,8.971153945E-2,9.863143921E0,9.865631172E0
4.205975260E0,2.264945209E-1,8.971153945E-2,9.896680832E0,9.899678753E0
4.211012343E0,1.953530163E-1,9.210705012E-2,9.913449287E0,9.915801696E0
4.216049427E0,1.857710183E-1,1.040845439E-1,9.879912376E0,9.882206891E0
4.221086562E0,2.169125229E-1,5.377905443E-2,9.855957985E0,9.858491316E0
4.226123645E0,2.121215165E-1,4.419707134E-2,9.879912376E0,9.882288069E0
4.231160729E0,2.097260207E-1,6.815206259E-2,9.920636177E0,9.923086811E0
4.236215260E0,2.073305249E-1,6.096558645E-2,9.896680832E0,9.899040066E0
4.241252395E0,1.881665289E-1,5.377905443E-2,9.915844917E0,9.917775923E0
4.246289427E0,1.785845160E-1,6.096558645E-2,9.954173088E0,9.955961586E0
4.251326562E0,2.264945209E-1,6.336104125E-2,9.913449287E0,9.916238761E0
4.256363645E0,2.145170271E-1,6.336104125E-2,9.889494896E0,9.892024134E0
4.261400729E0,1.833755225E-1,8.012955636E-2,9.901472092E0,9.903494177E0
4.266411927E0,2.049350291E-1,6.096558645E-2,9.901472092E0,9.903780326E0
4.271449062E0,2.001440227E-1,4.419707134E-2,9.923031807E0,9.925148425E0
4.276486093E0,1.761890203E-1,8.252506703E-2,9.894286156E0,9.896198840E0
4.281523229E0,1.953530163E-1,9.450256079E-2,9.887099266E0,9.889480544E0
4.286560312E0,2.169125229E-1,1.112710759E-1,9.891890526E0,9.894894162E0
4.291597448E0,2.288900167E-1,1.064800546E-1,9.901472092E0,9.904689709E0
4.296650729E0,2.001440227E-1,1.016890332E-1,9.925427437E0,9.927965960E0
4.301687864E0,2.312855273E-1,9.450256079E-2,9.899076462E0,9.902228968E0
4.306724948E0,2.073305249E-1,9.210705012E-2,9.903867722E0,9.906465843E0
4.311762083E0,2.193080187E-1,9.210705012E-2,9.935009003E0,9.937856087E0
4.316799166E0,1.881665289E-1,6.815206259E-2,9.903867722E0,9.905889521E0
4.321836250E0,1.833755225E-1,8.252506703E-2,9.908658981E0,9.910699258E0
4.326865833E0,2.121215165E-1,8.252506703E-2,9.908658981E0,9.911272811E0
4.331902968E0,2.169125229E-1,8.012955636E-2,9.884703636E0,9.887408041E0
4.336940052E0,2.264945209E-1,9.450256079E-2,9.865539551E0,9.868591649E0
4.341977135E0,2.073305249E-1,6.336104125E-2,9.863143921E0,9.865526269E0
4.347014270E0,1.953530163E-1,6.575655192E-2,9.887099266E0,9.889247627E0
4.352051354E0,1.761890203E-1,6.336104125E-2,9.942195892E0,9.943958787E0
4.357120833E0,1.690025181E-1,9.689807147E-2,9.891890526E0,9.893808633E0
4.362157916E0,2.097260207E-1,8.012955636E-2,9.884703636E0,9.887252992E0
4.367195000E0,1.857710183E-1,5.857007578E-2,9.932613373E0,9.934523126E0
4.372232083E0,2.025395185E-1,3.701053932E-2,9.901472092E0,9.903612554E0
4.377269166E0,1.905620247E-1,5.857007578E-2,9.867935181E0,9.869948788E0
4.382306302E0,1.953530163E-1,7.294308394E-2,9.908658981E0,9.910852955E0
4.387300833E0,1.833755225E-1,7.294308394E-2,9.875122070E0,9.877093863E0
4.392337968E0,1.977485269E-1,7.294308394E-2,9.913449287E0,9.915689686E0
4.397375000E0,2.025395185E-1,4.180156067E-2,9.958964348E0,9.961111409E0
4.402412135E0,2.456585169E-1,1.016890332E-1,9.906263351E0,9.909830592E0
4.407449218E0,2.312855273E-1,8.971153945E-2,9.858353615E0,9.861474390E0
4.412486354E0,1.929575205E-1,8.971153945E-2,9.872726440E0,9.875019399E0
4.417553698E0,2.169125229E-1,8.012955636E-2,9.908658981E0,9.911356849E0
4.422590781E0,2.097260207E-1,8.492057770E-2,9.920636177E0,9.923216145E0
4.427627864E0,2.097260207E-1,7.773404568E-2,9.887099266E0,9.889628885E0
4.432665000E0,2.097260207E-1,1.016890332E-1,9.875122070E0,9.877872320E0
4.437702083E0,2.097260207E-1,1.016890332E-1,9.901472092E0,9.904215024E0
4.442739166E0,2.097260207E-1,7.054757327E-2,9.920636177E0,9.923103553E0
4.447761875E0,2.240990251E-1,4.898803309E-2,9.891890526E0,9.894549933E0
4.452799010E0,2.025395185E-1,5.138354376E-2,9.875122070E0,9.877332556E0
4.457836093E0,2.145170271E-1,5.857007578E-2,9.889494896E0,9.891994607E0
4.462873177E0,2.145170271E-1,6.575655192E-2,9.887099266E0,9.889644755E0
4.467910260E0,2.121215165E-1,4.180156067E-2,9.906263351E0,9.908622331E0
4.472947395E0,2.217035294E-1,4.180156067E-2,9.903867722E0,9.906437083E0
4.477979635E0,2.001440227E-1,5.617456511E-2,9.908658981E0,9.910839320E0
4.483016718E0,2.073305249E-1,6.575655192E-2,9.915844917E0,9.918230200E0
4.488053854E0,1.857710183E-1,4.898803309E-2,9.906263351E0,9.908126174E0
4.493090937E0,2.001440227E-1,4.659258202E-2,9.906263351E0,9.908394526E0
4.498128020E0,2.097260207E-1,6.336104125E-2,9.920636177E0,9.923055063E0
4.503165156E0,1.929575205E-1,6.336104125E-2,9.887099266E0,9.889184957E0
4.508209843E0,2.001440227E-1,8.252506703E-2,9.870330811E0,9.872704712E0
4.513246979E0,1.929575205E-1,9.210705012E-2,9.889494896E0,9.891805983E0
4.518284062E0,1.905620247E-1,1.040845439E-1,9.894286156E0,9.896668430E0
4.523321198E0,1.977485269E-1,8.731608838E-2,9.896680832E0,9.899041371E0
4.528358281E0,2.193080187E-1,1.088755652E-1,9.863143921E0,9.866182539E0
4.533395364E0,2.121215165E-1,8.492057770E-2,9.867935181E0,9.870580113E0
4.538401718E0,2.336810231E-1,7.294308394E-2,9.908658981E0,9.911682517E0
4.543438854E0,2.025395185E-1,1.064800546E-1,9.889494896E0,9.892141808E0
4.548475937E0,1.881665289E-1,1.112710759E-1,9.899076462E0,9.901489923E0
4.553513020E0,2.169125229E-1,9.929358214E-2,9.903867722E0,9.906740438E0
4.558550104E0,2.097260207E-1,8.731608838E-2,9.927823067E0,9.930421942E0
4.563587239E0,2.025395185E-1,8.012955636E-2,9.937404633E0,9.939791438E0
4.568651875E0,2.049350291E-1,9.450256079E-2,9.875122070E0,9.877700390E0
4.573689010E0,1.977485269E-1,6.096558645E-2,9.855957985E0,9.858130101E0
4.578726093E0,2.193080187E-1,6.096558645E-2,9.930217743E0,9.932826246E0
4.583763177E0,2.025395185E-1,9.929358214E-2,9.913449287E0,9.916015240E0
4.588800260E0,2.121215165E-1,6.815206259E-2,9.906263351E0,9.908768532E0
4.593837395E0,2.073305249E-1,5.138354376E-2,9.944591522E0,9.946885279E0
4.598875729E0,2.193080187E-1,4.898803309E-2,9.906263351E0,9.908811706E0
4.603912864E0,2.097260207E-1,5.377905443E-2,9.899076462E0,9.901443934E0
4.608949948E0,2.264945209E-1,7.533853501E-2,9.901472092E0,9.904348805E0
4.613987031E0,2.049350291E-1,6.096558645E-2,9.906263351E0,9.908570470E0
4.619024166E0,2.049350291E-1,1.016890332E-1,9.908658981E0,9.911299705E0
4.624061250E0,2.217035294E-1,6.575655192E-2,9.882308006E0,9.885013298E0
4.629094270E0,1.905620247E-1,9.929358214E-2,9.896680832E0,9.899013314E0
4.634131406E0,2.025395185E-1,9.929358214E-2,9.865539551E0,9.868117961E0
4.639168489E0,2.049350291E-1,6.575655192E-2,9.884703636E0,9.887046488E0
4.644205625E0,2.145170271E-1,9.450256079E-2,9.894286156E0,9.897062535E0
4.649242656E0,2.169125229E-1,1.016890332E-1,9.906263351E0,9.909159666E0
4.654279791E0,2.073305249E-1,1.040845439E-1,9.935009003E0,9.937717214E0
4.659296145E0,2.193080187E-1,1.040845439E-1,9.853562355E0,9.856552170E0
4.664333281E0,2.001440227E-1,7.054757327E-2,9.867935181E0,9.870216782E0
4.669370364E0,1.977485269E-1,5.377905443E-2,9.927823067E0,9.929937941E0
4.674407448E0,2.073305249E-1,8.492057770E-2,9.896680832E0,9.899216582E0
4.679444531E0,1.905620247E-1,7.773404568E-2,9.908658981E0,9.910796097E0
4.684481614E0,1.953530163E-1,8.252506703E-2,9.925427437E0,9.927692733E0
4.689544166E0,1.690025181E-1,9.929358214E-2,9.870330811E0,9.872276909E0
4.694581250E0,2.145170271E-1,5.377905443E-2,9.927823067E0,9.930286027E0
4.699618333E0,2.384720147E-1,7.054757327E-2,9.918240547E0,9.921357841E0
4.704655468E0,2.001440227E-1,5.377905443E-2,9.882308006E0,9.884480833E0
4.709692500E0,1.905620247E-1,5.377905443E-2,9.923031807E0,9.925007119E0
4.714729635E0,1.953530163E-1,5.617456511E-2,9.882308006E0,9.884398308E0
4.719766823E0,2.097260207E-1,5.377905443E-2,9.884703636E0,9.887074550E0
4.724803958E0,2.312855273E-1,8.731608838E-2,9.891890526E0,9.894979296E0
4.729841041E0,2.193080187E-1,9.689807147E-2,9.908658981E0,9.911559315E0
4.734878177E0,2.193080187E-1,6.815206259E-2,9.901472092E0,9.904135010E0
4.739915260E0,2.049350291E-1,9.689807147E-2,9.920636177E0,9.923225774E0
4.744952343E0,2.049350291E-1,1.040845439E-1,9.903867722E0,9.906534601E0
4.749984166E0,1.857710183E-1,8.731608838E-2,9.899076462E0,9.901204460E0
4.755021302E0,2.097260207E-1,1.088755652E-1,9.894286156E0,9.897107528E0
4.760058385E0,2.217035294E-1,9.210705012E-2,9.903867722E0,9.906777075E0
4.765095520E0,2.169125229E-1,1.064800546E-1,9.894286156E0,9.897236360E0
4.770132604E0,2.073305249E-1,1.232485697E-1,9.925427437E0,9.928357667E0
4.775169687E0,1.905620247E-1,8.492057770E-2,9.903867722E0,9.906064871E0
4.780230989E0,2.073305249E-1,7.773404568E-2,9.920636177E0,9.923106907E0
4.785268073E0,2.097260207E-1,8.012955636E-2,9.863143921E0,9.865698848E0
4.790305156E0,1.857710183E-1,8.252506703E-2,9.901472092E0,9.903558494E0
4.795342239E0,1.713980287E-1,1.016890332E-1,9.908658981E0,9.910662982E0
4.800379375E0,1.905620247E-1,6.336104125E-2,9.937404633E0,9.939433552E0
4.805416458E0,2.169125229E-1,6.096558645E-2,9.906263351E0,9.908825432E0
4.810463958E0,2.169125229E-1,7.054757327E-2,9.903867722E0,9.906494024E0
4.815501093E0,2.193080187E-1,1.784657501E-2,9.927823067E0,9.930261092E0
4.820538125E0,2.001440227E-1,6.815206259E-2,9.903867722E0,9.906124276E0
4.825575260E0,2.049350291E-1,4.659258202E-2,9.863143921E0,9.865382772E0
4.830612343E0,2.217035294E-1,5.617456511E-2,9.889494896E0,9.892139169E0
4.835649479E0,2.240990251E-1,8.492057770E-2,9.887099266E0,9.890003224E0
4.840648750E0,2.049350291E-1,6.815206259E-2,9.894286156E0,9.896642946E0
4.845685885E0,1.977485269E-1,6.336104125E-2,9.891890526E0,9.894069803E0
4.850722968E0,1.881665289E-1,9.929358214E-2,9.923031807E0,9.925312393E0
4.855760052E0,2.049350291E-1,1.016890332E-1,9.875122070E0,9.877771759E0
4.860797187E0,2.025395185E-1,8.971153945E-2,9.889494896E0,9.891975521E0
4.865834270E0,1.737935245E-1,7.533853501E-2,9.903867722E0,9.905678974E0
4.870851927E0,2.001440227E-1,8.252506703E-2,9.875122070E0,9.877494820E0
4.875889062E0,2.073305249E-1,7.533853501E-2,9.911054611E0,9.913509235E0
4.880926145E0,2.073305249E-1,9.689807147E-2,9.913449287E0,9.916090558E0
4.885963229E0,2.121215165E-1,1.160620376E-1,9.913449287E0,9.916397668E0
4.891000312E0,2.240990251E-1,1.280395836E-1,9.894286156E0,9.897651895E0
4.896037448E0,2.240990251E-1,9.689807147E-2,9.896680832E0,9.899691970E0
4.901110833E0,2.312855273E-1,9.689807147E-2,9.901472092E0,9.904646981E0
4.906147968E0,2.121215165E-1,8.012955636E-2,9.894286156E0,9.896884096E0
4.911185052E0,2.049350291E-1,7.533853501E-2,9.887099266E0,9.889509905E0
4.916222187E0,1.977485269E-1,7.773404568E-2,9.896680832E0,9.898961488E0
4.921259218E0,2.049350291E-1,9.210705012E-2,9.882308006E0,9.884861841E0
4.926296354E0,2.025395185E-1,5.617456511E-2,9.930217743E0,9.932441908E0
4.931304166E0,1.929575205E-1,5.138354376E-2,9.863143921E0,9.865165020E0
4.936341302E0,1.977485269E-1,5.138354376E-2,9.906263351E0,9.908370115E0
4.941378333E0,1.953530163E-1,6.815206259E-2,9.906263351E0,9.908423744E0
4.946415468E0,2.073305249E-1,8.012955636E-2,9.865539551E0,9.868043237E0
4.951452552E0,2.001440227E-1,7.294308394E-2,9.915844917E0,9.918132826E0
4.956489687E0,2.073305249E-1,1.064800546E-1,9.925427437E0,9.928163665E0
4.961533645E0,1.761890203E-1,5.857007578E-2,9.911054611E0,9.912793579E0
4.966570781E0,2.001440227E-1,8.492057770E-2,9.954173088E0,9.956547143E0
4.971607812E0,2.097260207E-1,9.929358214E-2,9.882308006E0,9.885031904E0
4.976644948E0,1.929575205E-1,8.492057770E-2,9.913449287E0,9.915690641E0
4.981682031E0,2.049350291E-1,8.731608838E-2,9.894286156E0,9.896793470E0
4.986719114E0,2.073305249E-1,1.040845439E-1,9.877516747E0,9.880240717E0
4.991738333E0,2.049350291E-1,5.857007578E-2,9.884703636E0,9.887001304E0
4.996775468E0,2.408675253E-1,6.575655192E-2,9.877516747E0,9.880671949E0
5.001812552E0,2.073305249E-1,1.064800546E-1,9.899076462E0,9.901819971E0
5.006849635E0,2.073305249E-1,7.773404568E-2,9.932613373E0,9.935081124E0
5.011886718E0,2.264945209E-1,8.012955636E-2,9.939800262E0,9.942703343E0
5.016923802E0,2.145170271E-1,6.336104125E-2,9.923031807E0,9.925552499E0
5.021995885E0,2.288900167E-1,8.252506703E-2,9.891890526E0,9.894882475E0
5.027032968E0,2.360765189E-1,7.294308394E-2,9.923031807E0,9.926107649E0
5.032070052E0,2.145170271E-1,7.054757327E-2,9.908658981E0,9.911231877E0
5.037107187E0,1.977485269E-1,6.096558645E-2,9.899076462E0,9.901239118E0
5.042144218E0,2.217035294E-1,7.054757327E-2,9.915844917E0,9.918573982E0
5.047181354E0,1.977485269E-1,6.575655192E-2,9.894286156E0,9.896480533E0
5.052215729E0,2.073305249E-1,5.377905443E-2,9.918240547E0,9.920553094E0
5.057252864E0,2.217035294E-1,7.294308394E-2,9.918240547E0,9.920986277E0
5.062290000E0,1.905620247E-1,8.971153945E-2,9.906263351E0,9.908502189E0
5.067327083E0,2.145170271E-1,8.971153945E-2,9.896680832E0,9.899411963E0
5.072364166E0,2.384720147E-1,7.054757327E-2,9.913449287E0,9.916568088E0
5.077401250E0,2.121215165E-1,8.971153945E-2,9.899076462E0,9.901755324E0
5.082412031E0,1.857710183E-1,7.533853501E-2,9.918240547E0,9.920266242E0
5.087449166E0,1.977485269E-1,5.377905443E-2,9.899076462E0,9.901197476E0
5.092486250E0,2.240990251E-1,8.492057770E-2,9.889494896E0,9.892398151E0
5.097523333E0,2.097260207E-1,8.971153945E-2,9.906263351E0,9.908889279E0
5.102560416E0,2.001440227E-1,6.575655192E-2,9.899076462E0,9.901317910E0
5.107597500E0,2.121215165E-1,1.232485697E-1,9.939800262E0,9.942827314E0
5.112658437E0,2.288900167E-1,8.731608838E-2,9.915844917E0,9.918870660E0
5.117695573E0,1.857710183E-1,8.252506703E-2,9.877516747E0,9.879608208E0
5.122732656E0,2.288900167E-1,9.689807147E-2,9.894286156E0,9.897407661E0
5.127769843E0,2.240990251E-1,7.294308394E-2,9.875122070E0,9.877933841E0
5.132806927E0,2.025395185E-1,8.731608838E-2,9.889494896E0,9.891954087E0
5.137844010E0,2.145170271E-1,9.689807147E-2,9.925427437E0,9.928218198E0
5.142882031E0,2.145170271E-1,1.016890332E-1,9.911054611E0,9.913897403E0
5.147919166E0,1.929575205E-1,5.138354376E-2,9.906263351E0,9.908275655E0
5.152956302E0,2.001440227E-1,4.180156067E-2,9.877516747E0,9.879632689E0
5.157993385E0,2.025395185E-1,5.138354376E-2,9.891890526E0,9.894097266E0
5.163030520E0,1.977485269E-1,7.533853501E-2,9.889494896E0,9.891758674E0
5.168067656E0,2.169125229E-1,7.294308394E-2,9.896680832E0,9.899326403E0
5.173116145E0,2.025395185E-1,7.054757327E-2,9.887099266E0,9.889425217E0
5.178153281E0,1.977485269E-1,5.617456511E-2,9.920636177E0,9.922765855E0
5.183190364E0,2.097260207E-1,8.252506703E-2,9.911054611E0,9.913616842E0
5.188227500E0,2.001440227E-1,7.773404568E-2,9.875122070E0,9.877455954E0
5.193264635E0,2.073305249E-1,4.659258202E-2,9.884703636E0,9.886987549E0
5.198301770E0,1.977485269E-1,5.617456511E-2,9.920636177E0,9.922765855E0
5.203311718E0,2.073305249E-1,1.160620376E-1,9.879912376E0,9.882769091E0
5.208348854E0,2.001440227E-1,8.252506703E-2,9.889494896E0,9.891864198E0
5.213385937E0,2.288900167E-1,6.336104125E-2,9.920636177E0,9.923478595E0
5.218423073E0,2.097260207E-1,9.929358214E-2,9.918240547E0,9.920954580E0
5.223460156E0,1.905620247E-1,9.450256079E-2,9.877516747E0,9.879806764E0
5.228497291E0,2.145170271E-1,1.016890332E-1,9.891890526E0,9.894738824E0
5.233550729E0,2.336810231E-1,8.731608838E-2,9.913449287E0,9.916587502E0
5.238587864E0,2.240990251E-1,7.294308394E-2,9.877516747E0,9.880327836E0
5.243624948E0,2.217035294E-1,7.773404568E-2,9.891890526E0,9.894680046E0
5.248662083E0,2.193080187E-1,7.533853501E-2,9.903867722E0,9.906582042E0
5.253699218E0,2.145170271E-1,9.210705012E-2,9.913449287E0,9.916197761E0
5.258736302E0,2.073305249E-1,8.492057770E-2,9.899076462E0,9.901611598E0
5.263779791E0,2.121215165E-1,1.088755652E-1,9.877516747E0,9.880394046E0
5.268816927E0,1.881665289E-1,8.492057770E-2,9.906263351E0,9.908414189E0
5.273854062E0,1.881665289E-1,6.096558645E-2,9.956568718E0,9.958533229E0
5.278891198E0,2.025395185E-1,4.659258202E-2,9.870330811E0,9.872518596E0
5.283928281E0,2.001440227E-1,6.815206259E-2,9.872726440E0,9.874990111E0
5.288965364E0,2.121215165E-1,5.617456511E-2,9.920636177E0,9.923062696E0
5.294010260E0,1.953530163E-1,4.659258202E-2,9.944591522E0,9.946619235E0
5.299047343E0,2.073305249E-1,6.575655192E-2,9.891890526E0,9.894281583E0
5.304084479E0,2.145170271E-1,6.575655192E-2,9.903867722E0,9.906408902E0
5.309121614E0,2.217035294E-1,7.533853501E-2,9.906263351E0,9.909030323E0
5.314158698E0,1.785845160E-1,7.533853501E-2,9.908658981E0,9.910554532E0
5.319195833E0,2.264945209E-1,5.857007578E-2,9.930217743E0,9.932973102E0
5.324223698E0,2.121215165E-1,4.180156067E-2,9.937404633E0,9.939756221E0
5.329260833E0,1.833755225E-1,8.252506703E-2,9.906263351E0,9.908304121E0
5.334297916E0,2.073305249E-1,8.012955636E-2,9.903867722E0,9.906361721E0
5.339335104E0,2.073305249E-1,9.689807147E-2,9.920636177E0,9.923275535E0
5.344372187E0,1.977485269E-1,1.016890332E-1,9.894286156E0,9.896784512E0
5.349409323E0,2.217035294E-1,8.971153945E-2,9.863143921E0,9.866043210E0
5.354421718E0,2.217035294E-1,1.088755652E-1,9.882308006E0,9.885394169E0
5.359458802E0,2.169125229E-1,1.112710759E-1,9.915844917E0,9.918841299E0
5.364495937E0,2.073305249E-1,7.294308394E-2,9.896680832E0,9.899121079E0
5.369533020E0,2.097260207E-1,7.533853501E-2,9.872726440E0,9.875241175E0
5.374570156E0,2.193080187E-1,9.689807147E-2,9.939800262E0,9.942691512E0
5.379607291E0,2.240990251E-1,9.689807147E-2,9.918240547E0,9.921245142E0
5.384663854E0,2.145170271E-1,4.898803309E-2,9.903867722E0,9.906311787E0
5.389700989E0,2.073305249E-1,8.731608838E-2,9.906263351E0,9.908817469E0
5.394738073E0,2.073305249E-1,6.815206259E-2,9.908658981E0,9.911062176E0
5.399775208E0,2.097260207E-1,9.689807147E-2,9.915844917E0,9.918535913E0
5.404812343E0,2.169125229E-1,7.773404568E-2,9.906263351E0,9.908942790E0
5.409849479E0,1.977485269E-1,3.701053932E-2,9.903867722E0,9.905910867E0
5.414883854E0,2.049350291E-1,5.857007578E-2,9.949381828E0,9.951664564E0
5.419920937E0,1.857710183E-1,8.012955636E-2,9.918240547E0,9.920303784E0
5.424958073E0,2.097260207E-1,8.012955636E-2,9.875122070E0,9.877673899E0
5.429995156E0,1.953530163E-1,9.210705012E-2,9.884703636E0,9.887062885E0
5.435032291E0,1.929575205E-1,6.336104125E-2,9.903867722E0,9.905949882E0
5.440069375E0,1.905620247E-1,7.533853501E-2,9.925427437E0,9.927542475E0
5.445158073E0,2.073305249E-1,6.815206259E-2,9.863143921E0,9.865558203E0
5.450195208E0,1.857710183E-1,8.731608838E-2,9.875122070E0,9.877255230E0
5.455232291E0,1.929575205E-1,1.016890332E-1,9.927823067E0,9.930218734E0
5.460269427E0,2.193080187E-1,1.112710759E-1,9.911054611E0,9.914105142E0
5.465306510E0,1.953530163E-1,8.971153945E-2,9.937404633E0,9.939729463E0
5.470343645E0,1.857710183E-1,8.252506703E-2,9.889494896E0,9.891583824E0
5.475344323E0,2.264945209E-1,8.492057770E-2,9.899076462E0,9.902031411E0
5.480381458E0,2.193080187E-1,8.492057770E-2,9.930217743E0,9.933002161E0
5.485418541E0,2.145170271E-1,8.492057770E-2,9.920636177E0,9.923318559E0
5.490455677E0,2.312855273E-1,9.210705012E-2,9.901472092E0,9.904601268E0
5.495492812E0,1.977485269E-1,9.450256079E-2,9.906263351E0,9.908687542E0
5.500529895E0,1.857710183E-1,8.492057770E-2,9.923031807E0,9.925133884E0
5.505561510E0,2.025395185E-1,4.898803309E-2,9.930217743E0,9.932403863E0
5.510598645E0,2.145170271E-1,7.294308394E-2,9.915844917E0,9.918433277E0
5.515635781E0,2.145170271E-1,8.492057770E-2,9.891890526E0,9.894580700E0
5.520672864E0,2.145170271E-1,7.533853501E-2,9.908658981E0,9.911267137E0
5.525710000E0,1.977485269E-1,8.731608838E-2,9.908658981E0,9.911016668E0
5.530747083E0,1.953530163E-1,5.857007578E-2,9.946987152E0,9.949077679E0
5.535785833E0,2.217035294E-1,7.773404568E-2,9.894286156E0,9.897075001E0
5.540822916E0,2.001440227E-1,1.016890332E-1,9.875122070E0,9.877673521E0
5.545860052E0,2.097260207E-1,6.096558645E-2,9.918240547E0,9.920645007E0
5.550897187E0,2.049350291E-1,6.096558645E-2,9.899076462E0,9.901385255E0
5.555934323E0,1.809800267E-1,7.054757327E-2,9.896680832E0,9.898586880E0
5.560971406E0,2.193080187E-1,1.040845439E-1,9.918240547E0,9.921210871E0
5.566001302E0,1.953530163E-1,1.208530590E-1,9.911054611E0,9.913716345E0
5.571038385E0,1.929575205E-1,1.016890332E-1,9.915844917E0,9.918243478E0
5.576075520E0,2.025395185E-1,8.492057770E-2,9.887099266E0,9.889538192E0
5.581112656E0,2.240990251E-1,1.232485697E-1,9.887099266E0,9.890406588E0
5.586149739E0,2.121215165E-1,1.280395836E-1,9.925427437E0,9.928519501E0
5.591186875E0,2.121215165E-1,6.815206259E-2,9.913449287E0,9.915952653E0
5.596201927E0,2.097260207E-1,8.012955636E-2,9.877516747E0,9.880067957E0
5.601239062E0,2.121215165E-1,9.689807147E-2,9.908658981E0,9.911402907E0
5.606276145E0,1.953530163E-1,6.815206259E-2,9.906263351E0,9.908423744E0
5.611313281E0,1.953530163E-1,8.252506703E-2,9.879912376E0,9.882188106E0
5.616350364E0,2.097260207E-1,9.450256079E-2,9.894286156E0,9.896959850E0
5.621387500E0,1.953530163E-1,4.419707134E-2,9.906263351E0,9.908287933E0
5.626430625E0,2.240990251E-1,4.180156067E-2,9.899076462E0,9.901700992E0
5.631467760E0,2.432630211E-1,6.096558645E-2,9.894286156E0,9.897463929E0
5.636504843E0,2.169125229E-1,7.773404568E-2,9.899076462E0,9.901757845E0
5.641541979E0,2.193080187E-1,6.096558645E-2,9.903867722E0,9.906483163E0
5.646579114E0,2.097260207E-1,5.857007578E-2,9.884703636E0,9.887101771E0
5.651616198E0,2.073305249E-1,9.450256079E-2,9.899076462E0,9.901698414E0
5.656660625E0,2.193080187E-1,9.210705012E-2,9.942195892E0,9.945040919E0
5.661697708E0,2.001440227E-1,7.533853501E-2,9.937404633E0,9.939705446E0
5.666734843E0,2.073305249E-1,7.773404568E-2,9.887099266E0,9.889578374E0
5.671771979E0,1.929575205E-1,9.210705012E-2,9.942195892E0,9.944494732E0
5.676809114E0,1.929575205E-1,4.180156067E-2,9.908658981E0,9.910625751E0
5.681846198E0,1.905620247E-1,7.054757327E-2,9.911054611E0,9.913137463E0
5.686909010E0,2.193080187E-1,1.088755652E-1,9.894286156E0,9.897315213E0
5.691946093E0,2.169125229E-1,1.088755652E-1,9.891890526E0,9.894867513E0
5.696983229E0,2.217035294E-1,7.773404568E-2,9.937404633E0,9.940181380E0
5.702020312E0,1.809800267E-1,9.929358214E-2,9.908658981E0,9.910809038E0
5.707057448E0,2.217035294E-1,7.294308394E-2,9.872726440E0,9.875484824E0
5.712094583E0,2.049350291E-1,7.054757327E-2,9.908658981E0,9.911029116E0
5.717142187E0,1.977485269E-1,1.088755652E-1,9.901472092E0,9.904045030E0
5.722179270E0,2.025395185E-1,8.731608838E-2,9.915844917E0,9.918297575E0
5.727216354E0,1.977485269E-1,5.857007578E-2,9.901472092E0,9.903619768E0
5.732253541E0,2.193080187E-1,8.971153945E-2,9.920636177E0,9.923465439E0
5.737290625E0,2.001440227E-1,7.294308394E-2,9.918240547E0,9.920527903E0
5.742327760E0,2.169125229E-1,7.054757327E-2,9.872726440E0,9.875361025E0
5.747321145E0,2.240990251E-1,2.503304742E-2,9.891890526E0,9.894460329E0
5.752358281E0,1.881665289E-1,8.252506703E-2,9.867935181E0,9.870074050E0
5.757395364E0,1.905620247E-1,8.971153945E-2,9.882308006E0,9.884552270E0
5.762432500E0,2.312855273E-1,8.252506703E-2,9.908658981E0,9.911701478E0
5.767469583E0,2.073305249E-1,8.012955636E-2,9.911054611E0,9.913546802E0
5.772506718E0,2.169125229E-1,7.533853501E-2,9.901472092E0,9.904134315E0
5.777563645E0,1.905620247E-1,8.731608838E-2,9.882308006E0,9.884530819E0
5.782600781E0,2.145170271E-1,6.575655192E-2,9.903867722E0,9.906408902E0
5.787637864E0,2.193080187E-1,5.138354376E-2,9.906263351E0,9.908823839E0
5.792675000E0,1.953530163E-1,8.492057770E-2,9.930217743E0,9.932502138E0
5.797712135E0,2.240990251E-1,9.210705012E-2,9.879912376E0,9.882882811E0
5.802749218E0,2.049350291E-1,9.210705012E-2,9.870330811E0,9.872887743E0
5.807786250E0,1.761890203E-1,6.096558645E-2,9.899076462E0,9.900831994E0
5.812823385E0,2.145170271E-1,9.210705012E-2,9.899076462E0,9.901828925E0
5.817860468E0,2.001440227E-1,7.294308394E-2,9.906263351E0,9.908553472E0
5.822897656E0,2.121215165E-1,5.617456511E-2,9.901472092E0,9.903903306E0
5.827934739E0,1.977485269E-1,7.533853501E-2,9.925427437E0,9.927683022E0
5.832971823E0,1.953530163E-1,7.294308394E-2,9.901472092E0,9.903667658E0
5.838023385E0,2.073305249E-1,8.731608838E-2,9.896680832E0,9.899237422E0
5.843060468E0,2.049350291E-1,1.088755652E-1,9.903867722E0,9.906586097E0
5.848097552E0,1.977485269E-1,7.294308394E-2,9.896680832E0,9.898925026E0
5.853134739E0,1.857710183E-1,6.575655192E-2,9.901472092E0,9.903432959E0
5.858171823E0,2.193080187E-1,4.180156067E-2,9.932613373E0,9.935122133E0
5.863208906E0,2.073305249E-1,4.180156067E-2,9.903867722E0,9.906125840E0
5.868232239E0,2.217035294E-1,6.096558645E-2,9.911054611E0,9.913721439E0
5.873269375E0,1.905620247E-1,6.815206259E-2,9.879912376E0,9.881984980E0
5.878306458E0,1.833755225E-1,5.377905443E-2,9.891890526E0,9.893736248E0
5.883343645E0,1.785845160E-1,6.815206259E-2,9.884703636E0,9.886551629E0
5.888380729E0,1.977485269E-1,7.533853501E-2,9.887099266E0,9.889363593E0
5.893417864E0,2.097260207E-1,6.575655192E-2,9.896680832E0,9.899121194E0
5.898435625E0,1.881665289E-1,8.012955636E-2,9.867935181E0,9.870054312E0
5.903472708E0,2.001440227E-1,9.210705012E-2,9.894286156E0,9.896738850E0
5.908509843E0,2.145170271E-1,9.450256079E-2,9.889494896E0,9.892272620E0
5.913546927E0,2.264945209E-1,7.533853501E-2,9.920636177E0,9.923507335E0
5.918584062E0,1.905620247E-1,7.773404568E-2,9.872726440E0,9.874871333E0
5.923621198E0,1.977485269E-1,9.450256079E-2,9.906263351E0,9.908687542E0
5.928678437E0,2.552405298E-1,8.252506703E-2,9.875122070E0,9.878764802E0
5.933715573E0,2.049350291E-1,8.012955636E-2,9.870330811E0,9.872783266E0
5.938752656E0,1.857710183E-1,9.450256079E-2,9.908658981E0,9.910850842E0
5.943789791E0,2.288900167E-1,9.450256079E-2,9.908658981E0,9.911752831E0
5.948826927E0,2.121215165E-1,9.929358214E-2,9.920636177E0,9.923400471E0
5.953864062E0,1.953530163E-1,8.012955636E-2,9.908658981E0,9.910908453E0
5.958904218E0,2.169125229E-1,8.012955636E-2,9.891890526E0,9.894592966E0
5.963941302E0,2.504495382E-1,6.815206259E-2,9.879912376E0,9.883321215E0
5.968978437E0,2.049350291E-1,5.617456511E-2,9.899076462E0,9.901356914E0
5.974015520E0,1.953530163E-1,4.659258202E-2,9.896680832E0,9.898718359E0
5.979052656E0,2.264945209E-1,7.533853501E-2,9.879912376E0,9.882795365E0
5.984089791E0,2.001440227E-1,6.096558645E-2,9.901472092E0,9.903682346E0
5.989142604E0,1.905620247E-1,8.492057770E-2,9.891890526E0,9.894090335E0
5.994179739E0,1.953530163E-1,8.731608838E-2,9.875122070E0,9.877440094E0
5.999216823E0,1.905620247E-1,9.689807147E-2,9.913449287E0,9.915754126E0
6.004253958E0,2.025395185E-1,6.815206259E-2,9.889494896E0,9.891803489E0
6.009291093E0,2.145170271E-1,5.857007578E-2,9.872726440E0,9.875230396E0
6.014328229E0,1.857710183E-1,6.096558645E-2,9.927823067E0,9.929748160E0
6.019327291E0,1.785845160E-1,8.012955636E-2,9.901472092E0,9.903406624E0
6.024364427E0,2.193080187E-1,1.016890332E-1,9.887099266E0,9.890054022E0
6.029401510E0,2.049350291E-1,8.012955636E-2,9.920636177E0,9.923076200E0
6.034438645E0,1.977485269E-1,8.971153945E-2,9.875122070E0,9.877509228E0
6.039475729E0,2.049350291E-1,7.533853501E-2,9.891890526E0,9.894299997E0
6.044512864E0,2.217035294E-1,1.016890332E-1,9.872726440E0,9.875738984E0
6.049547083E0,2.097260207E-1,7.054757327E-2,9.923031807E0,9.925498587E0
6.054584218E0,2.025395185E-1,5.617456511E-2,9.891890526E0,9.894123307E0
6.059621302E0,2.145170271E-1,9.689807147E-2,9.908658981E0,9.911454464E0
6.064658385E0,2.025395185E-1,1.016890332E-1,9.887099266E0,9.889696396E0
6.069695520E0,1.977485269E-1,9.929358214E-2,9.908658981E0,9.911129426E0
6.074732656E0,2.049350291E-1,9.929358214E-2,9.935009003E0,9.937618501E0
6.079791927E0,1.905620247E-1,1.088755652E-1,9.903867722E0,9.906299189E0
6.084829062E0,2.264945209E-1,8.252506703E-2,9.884703636E0,9.887642597E0
6.089866198E0,2.097260207E-1,7.054757327E-2,9.872726440E0,9.875205787E0
6.094903333E0,1.929575205E-1,7.533853501E-2,9.875122070E0,9.877294387E0
6.099940416E0,1.929575205E-1,5.857007578E-2,9.889494896E0,9.891550554E0
6.104977500E0,1.809800267E-1,8.731608838E-2,9.903867722E0,9.905906002E0
6.110010468E0,2.169125229E-1,8.971153945E-2,9.891890526E0,9.894675203E0
6.115047552E0,2.025395185E-1,5.857007578E-2,9.865539551E0,9.867792222E0
6.120084687E0,2.025395185E-1,8.252506703E-2,9.911054611E0,9.913467413E0
6.125121770E0,2.145170271E-1,6.575655192E-2,9.925427437E0,9.927963098E0
6.130158906E0,1.953530163E-1,9.210705012E-2,9.915844917E0,9.918196758E0
6.135195989E0,1.977485269E-1,8.731608838E-2,9.889494896E0,9.891857150E0
6.140251875E0,2.001440227E-1,6.336104125E-2,9.877516747E0,9.879747432E0
6.145288958E0,1.881665289E-1,5.377905443E-2,9.901472092E0,9.903405900E0
6.150326145E0,2.025395185E-1,6.336104125E-2,9.891890526E0,9.894166718E0
6.155363281E0,2.049350291E-1,5.377905443E-2,9.891890526E0,9.894159324E0
6.160400364E0,1.905620247E-1,7.294308394E-2,9.899076462E0,9.901179191E0
6.165437500E0,1.929575205E-1,1.232485697E-1,9.894286156E0,9.896934947E0
6.170458177E0,1.977485269E-1,7.533853501E-2,9.891890526E0,9.894153756E0
6.175495260E0,1.833755225E-1,7.054757327E-2,9.906263351E0,9.908211601E0
6.180532395E0,2.169125229E-1,7.294308394E-2,9.889494896E0,9.892142388E0
6.185569583E0,2.193080187E-1,6.096558645E-2,9.923031807E0,9.925642198E0
6.190606718E0,1.857710183E-1,5.377905443E-2,9.884703636E0,9.886595422E0
6.195643854E0,2.097260207E-1,5.617456511E-2,9.887099266E0,9.889482923E0
6.200658385E0,2.049350291E-1,6.575655192E-2,9.911054611E0,9.913391236E0
6.205695468E0,1.857710183E-1,4.898803309E-2,9.927823067E0,9.929681845E0
6.210732656E0,1.881665289E-1,2.982406877E-2,9.877516747E0,9.879353886E0
6.215769791E0,2.073305249E-1,7.054757327E-2,9.894286156E0,9.896709627E0
6.220806927E0,1.953530163E-1,1.016890332E-1,9.927823067E0,9.930265571E0
6.225844062E0,2.049350291E-1,8.492057770E-2,9.911054611E0,9.913536875E0
6.230914114E0,2.217035294E-1,7.294308394E-2,9.896680832E0,9.899432541E0
6.235951198E0,2.145170271E-1,4.180156067E-2,9.908658981E0,9.911068950E0
6.240988385E0,2.025395185E-1,7.533853501E-2,9.889494896E0,9.891855612E0
6.246025520E0,1.833755225E-1,8.492057770E-2,9.901472092E0,9.903534100E0
6.251062656E0,2.145170271E-1,8.971153945E-2,9.920636177E0,9.923360715E0
6.256099739E0,2.145170271E-1,8.012955636E-2,9.930217743E0,9.932857732E0
6.261157916E0,2.121215165E-1,9.210705012E-2,9.906263351E0,9.908962248E0
6.266195052E0,2.169125229E-1,8.731608838E-2,9.913449287E0,9.916206529E0
6.271232187E0,2.169125229E-1,5.138354376E-2,9.927823067E0,9.930325380E0
6.276269323E0,2.097260207E-1,9.210705012E-2,9.911054611E0,9.913701237E0
6.281306458E0,1.642115265E-1,1.064800546E-1,9.913449287E0,9.915380991E0
6.286343593E0,2.288900167E-1,5.857007578E-2,9.930217743E0,9.933028013E0
6.291326458E0,2.097260207E-1,5.857007578E-2,9.889494896E0,9.891891869E0
6.296363593E0,1.905620247E-1,8.012955636E-2,9.879912376E0,9.882074843E0
6.301400729E0,1.881665289E-1,7.054757327E-2,9.908658981E0,9.910696565E0
6.306437864E0,2.193080187E-1,7.533853501E-2,9.860748291E0,9.863474477E0
6.311475000E0,2.097260207E-1,9.929358214E-2,9.894286156E0,9.897006757E0
6.316512135E0,2.097260207E-1,8.492057770E-2,9.911054611E0,9.913637073E0
6.321572031E0,1.977485269E-1,8.252506703E-2,9.913449287E0,9.915764804E0
6.326609218E0,1.953530163E-1,6.096558645E-2,9.908658981E0,9.910772039E0
6.331646302E0,1.809800267E-1,9.450256079E-2,9.882308006E0,9.884416828E0
6.336683489E0,2.001440227E-1,7.773404568E-2,9.918240547E0,9.920564287E0
6.341720573E0,1.905620247E-1,6.815206259E-2,9.908658981E0,9.910725574E0
6.346757708E0,1.977485269E-1,6.575655192E-2,9.887099266E0,9.889295238E0
6.351811041E0,2.193080187E-1,9.689807147E-2,9.889494896E0,9.892400848E0
6.356848229E0,2.097260207E-1,1.328305453E-1,9.932613373E0,9.935715242E0
6.361885312E0,2.097260207E-1,3.940605000E-2,9.937404633E0,9.939695603E0
6.366922500E0,1.953530163E-1,6.336104125E-2,9.882308006E0,9.884441762E0
6.371959635E0,2.001440227E-1,9.689807147E-2,9.872726440E0,9.875230338E0
6.376996718E0,1.881665289E-1,5.617456511E-2,9.901472092E0,9.903419198E0
6.382035052E0,1.953530163E-1,6.815206259E-2,9.884703636E0,9.886868740E0
6.387072239E0,2.121215165E-1,1.352260560E-1,9.875122070E0,9.878325644E0
6.392109375E0,2.145170271E-1,8.492057770E-2,9.901472092E0,9.904159664E0
6.397146510E0,1.833755225E-1,7.054757327E-2,9.887099266E0,9.889051291E0
6.402183593E0,2.025395185E-1,9.450256079E-2,9.911054611E0,9.913574355E0
6.407220729E0,2.264945209E-1,5.617456511E-2,9.879912376E0,9.882667854E0
6.412252135E0,2.217035294E-1,5.617456511E-2,9.918240547E0,9.920877158E0
6.417289323E0,1.977485269E-1,5.857007578E-2,9.918240547E0,9.920384594E0
6.422326406E0,2.240990251E-1,7.294308394E-2,9.870330811E0,9.873143946E0
6.427363593E0,1.881665289E-1,6.096558645E-2,9.903867722E0,9.905842685E0
6.432400677E0,2.097260207E-1,5.377905443E-2,9.887099266E0,9.889469606E0
6.437437864E0,2.073305249E-1,8.492057770E-2,9.867935181E0,9.870478316E0
6.442435052E0,2.240990251E-1,9.450256079E-2,9.891890526E0,9.894879953E0
6.447472187E0,1.905620247E-1,1.256440729E-1,9.911054611E0,9.913682657E0
6.452509323E0,2.169125229E-1,4.659258202E-2,9.899076462E0,9.901562337E0
6.457546458E0,2.145170271E-1,7.054757327E-2,9.913449287E0,9.916020940E0
6.462583593E0,1.977485269E-1,9.210705012E-2,9.913449287E0,9.915849180E0
6.467620729E0,2.073305249E-1,9.450256079E-2,9.889494896E0,9.892119388E0
6.472682552E0,2.288900167E-1,7.294308394E-2,9.865539551E0,9.868464012E0
6.477719687E0,2.169125229E-1,8.252506703E-2,9.865539551E0,9.868268949E0
6.482756823E0,1.905620247E-1,5.617456511E-2,9.863143921E0,9.865144574E0
6.487794010E0,2.240990251E-1,8.731608838E-2,9.903867722E0,9.906787588E0
6.492831093E0,2.049350291E-1,6.575655192E-2,9.889494896E0,9.891836613E0
6.497868281E0,2.025395185E-1,9.210705012E-2,9.870330811E0,9.872838309E0
6.502924062E0,1.953530163E-1,7.533853501E-2,9.918240547E0,9.920450305E0
6.507961198E0,1.953530163E-1,8.731608838E-2,9.915844917E0,9.918153423E0
6.512998333E0,2.217035294E-1,1.040845439E-1,9.896680832E0,9.899710982E0
6.518035468E0,1.761890203E-1,8.492057770E-2,9.894286156E0,9.896219107E0
6.523072552E0,2.025395185E-1,5.617456511E-2,9.896680832E0,9.898912533E0
6.528109739E0,2.217035294E-1,6.336104125E-2,9.877516747E0,9.880207698E0
6.533150781E0,2.169125229E-1,6.815206259E-2,9.899076462E0,9.901687257E0
6.538187968E0,2.121215165E-1,4.898803309E-2,9.903867722E0,9.906260203E0
6.543225052E0,2.097260207E-1,4.898803309E-2,9.891890526E0,9.894234837E0
6.548262239E0,2.264945209E-1,9.450256079E-2,9.894286156E0,9.897329389E0
6.553299323E0,1.905620247E-1,9.689807147E-2,9.918240547E0,9.920544273E0
6.558336510E0,2.025395185E-1,7.533853501E-2,9.915844917E0,9.918199362E0
6.563360000E0,1.737935245E-1,7.533853501E-2,9.903867722E0,9.905678974E0
6.568397135E0,1.953530163E-1,1.328305453E-1,9.918240547E0,9.921053488E0
6.573434218E0,2.073305249E-1,7.533853501E-2,9.899076462E0,9.901534055E0
6.578471406E0,2.049350291E-1,6.336104125E-2,9.908658981E0,9.910980567E0
6.583508489E0,2.217035294E-1,5.377905443E-2,9.896680832E0,9.899309882E0
6.588545625E0,2.001440227E-1,8.012955636E-2,9.913449287E0,9.915793218E0
6.593574895E0,2.097260207E-1,8.012955636E-2,9.884703636E0,9.887252992E0
6.598612031E0,2.169125229E-1,9.210705012E-2,9.918240547E0,9.921039779E0
6.603649166E0,1.977485269E-1,8.971153945E-2,9.882308006E0,9.884693428E0
6.608686302E0,2.145170271E-1,7.533853501E-2,9.915844917E0,9.918451183E0
6.613723437E0,1.905620247E-1,8.252506703E-2,9.877516747E0,9.879699456E0
6.618760573E0,2.073305249E-1,8.731608838E-2,9.894286156E0,9.896843364E0
6.623800416E0,1.833755225E-1,9.450256079E-2,9.913449287E0,9.915595499E0
6.628837604E0,1.857710183E-1,9.689807147E-2,9.946987152E0,9.949193611E0
6.633874687E0,2.073305249E-1,7.533853501E-2,9.930217743E0,9.932667631E0
6.638911875E0,2.025395185E-1,6.815206259E-2,9.923031807E0,9.925332599E0
6.643948958E0,2.169125229E-1,7.294308394E-2,9.908658981E0,9.911301355E0
6.648986093E0,2.240990251E-1,7.054757327E-2,9.935009003E0,9.937786535E0
6.654030156E0,2.288900167E-1,8.012955636E-2,9.930217743E0,9.933178535E0
6.659067291E0,1.929575205E-1,7.773404568E-2,9.918240547E0,9.920421903E0
6.664104375E0,1.905620247E-1,8.252506703E-2,9.896680832E0,9.898859316E0
6.669141562E0,2.025395185E-1,8.971153945E-2,9.877516747E0,9.880000379E0
6.674178645E0,1.953530163E-1,8.252506703E-2,9.903867722E0,9.906137947E0
6.679215833E0,1.785845160E-1,9.689807147E-2,9.877516747E0,9.879606204E0
6.684261979E0,1.977485269E-1,7.294308394E-2,9.908658981E0,9.910900463E0
6.689299166E0,2.145170271E-1,7.294308394E-2,9.937404633E0,9.939987378E0
6.694336250E0,2.025395185E-1,8.731608838E-2,9.915844917E0,9.918297575E0
6.699373437E0,2.073305249E-1,9.210705012E-2,9.896680832E0,9.899280840E0
6.704410520E0,2.169125229E-1,8.731608838E-2,9.915844917E0,9.918601492E0
6.709447708E0,2.193080187E-1,5.857007578E-2,9.913449287E0,9.916047763E0
6.714442708E0,1.857710183E-1,6.575655192E-2,9.908658981E0,9.910618427E0
6.719479843E0,2.121215165E-1,8.492057770E-2,9.889494896E0,9.892134064E0
6.724516979E0,1.857710183E-1,8.971153945E-2,9.891890526E0,9.894041500E0
6.729554114E0,1.977485269E-1,8.252506703E-2,9.889494896E0,9.891816019E0
6.734591250E0,1.785845160E-1,8.971153945E-2,9.875122070E0,9.877144147E0
6.739628385E0,1.929575205E-1,6.575655192E-2,9.867935181E0,9.870040591E0
6.744690312E0,1.857710183E-1,7.773404568E-2,9.903867722E0,9.905914864E0
6.749727500E0,1.977485269E-1,2.742855810E-2,9.899076462E0,9.901089415E0
6.754764583E0,2.025395185E-1,4.898803309E-2,9.899076462E0,9.901269458E0
6.759801718E0,1.857710183E-1,7.054757327E-2,9.939800262E0,9.941786413E0
6.764838854E0,2.049350291E-1,8.012955636E-2,9.937404633E0,9.939840539E0
6.769876041E0,2.121215165E-1,5.617456511E-2,9.891890526E0,9.894324095E0
6.774905156E0,2.073305249E-1,7.533853501E-2,9.882308006E0,9.884769768E0
6.779942291E0,2.121215165E-1,8.971153945E-2,9.911054611E0,9.913730237E0
6.784979427E0,2.097260207E-1,6.096558645E-2,9.882308006E0,9.884721207E0
6.790016562E0,2.169125229E-1,5.138354376E-2,9.913449287E0,9.915955228E0
6.795053698E0,1.905620247E-1,4.659258202E-2,9.882308006E0,9.884254969E0
6.800090833E0,1.953530163E-1,1.040845439E-1,9.906263351E0,9.908736044E0
6.805193698E0,2.169125229E-1,8.971153945E-2,9.906263351E0,9.909043990E0
6.810230833E0,2.097260207E-1,6.575655192E-2,9.949381828E0,9.951809267E0
6.815268020E0,2.001440227E-1,8.012955636E-2,9.879912376E0,9.882264262E0
6.820305104E0,1.761890203E-1,5.377905443E-2,9.906263351E0,9.907975996E0
6.825342239E0,2.121215165E-1,7.773404568E-2,9.925427437E0,9.927998183E0
6.830379375E0,2.240990251E-1,8.012955636E-2,9.935009003E0,9.937859176E0
6.835391718E0,1.953530163E-1,7.294308394E-2,9.903867722E0,9.906062757E0
6.840428854E0,1.881665289E-1,6.815206259E-2,9.865539551E0,9.867569203E0
6.845465989E0,2.217035294E-1,8.012955636E-2,9.896680832E0,9.899488102E0
6.850503125E0,2.121215165E-1,8.731608838E-2,9.925427437E0,9.928077832E0
6.855540260E0,2.169125229E-1,8.971153945E-2,9.906263351E0,9.909043990E0
6.860577395E0,2.360765189E-1,6.575655192E-2,9.930217743E0,9.933241186E0
6.865589010E0,2.001440227E-1,3.940605000E-2,9.882308006E0,9.884413083E0
6.870626198E0,1.905620247E-1,7.054757327E-2,9.896680832E0,9.898766708E0
6.875663333E0,2.193080187E-1,6.336104125E-2,9.899076462E0,9.901708207E0
6.880700416E0,2.169125229E-1,6.575655192E-2,9.891890526E0,9.894487007E0
6.885737552E0,2.097260207E-1,5.857007578E-2,9.894286156E0,9.896681969E0
6.890774739E0,2.025395185E-1,7.533853501E-2,9.913449287E0,9.915804300E0
6.895836198E0,2.217035294E-1,7.054757327E-2,9.918240547E0,9.920968953E0
6.900873333E0,2.025395185E-1,1.016890332E-1,9.896680832E0,9.899275448E0
6.905910468E0,2.097260207E-1,9.929358214E-2,9.884703636E0,9.887426874E0
6.910947604E0,2.240990251E-1,5.857007578E-2,9.923031807E0,9.925734787E0
6.915984739E0,2.217035294E-1,1.040845439E-1,9.884703636E0,9.887737457E0
6.921021875E0,2.336810231E-1,7.294308394E-2,9.877516747E0,9.880549812E0
6.926036927E0,2.121215165E-1,7.294308394E-2,9.901472092E0,9.904012612E0
6.931074062E0,2.121215165E-1,8.252506703E-2,9.882308006E0,9.884928804E0
6.936111198E0,2.097260207E-1,8.252506703E-2,9.870330811E0,9.872903610E0
6.941148385E0,2.049350291E-1,5.377905443E-2,9.918240547E0,9.920503319E0
6.946185468E0,2.121215165E-1,9.210705012E-2,9.891890526E0,9.894593343E0
6.951222604E0,2.169125229E-1,1.016890332E-1,9.872726440E0,9.875632591E0
6.956224479E0,2.001440227E-1,4.898803309E-2,9.903867722E0,9.906010968E0
6.961261562E0,2.169125229E-1,6.815206259E-2,9.903867722E0,9.906477254E0
6.966298750E0,2.264945209E-1,9.929358214E-2,9.891890526E0,9.894981413E0
6.971335885E0,2.336810231E-1,8.252506703E-2,9.913449287E0,9.916546475E0
6.976373020E0,2.145170271E-1,8.252506703E-2,9.908658981E0,9.911324369E0
6.981410156E0,2.169125229E-1,6.815206259E-2,9.896680832E0,9.899292259E0
6.986473020E0,2.097260207E-1,6.575655192E-2,9.865539551E0,9.867987614E0
6.991510156E0,2.073305249E-1,7.054757327E-2,9.867935181E0,9.870365122E0
6.996547291E0,2.025395185E-1,8.492057770E-2,9.884703636E0,9.887143153E0
7.001584427E0,2.264945209E-1,8.012955636E-2,9.901472092E0,9.904386407E0
7.006621562E0,2.097260207E-1,6.575655192E-2,9.923031807E0,9.925465690E0
7.011658698E0,2.001440227E-1,5.377905443E-2,9.899076462E0,9.901245609E0
7.016702448E0,1.833755225E-1,5.857007578E-2,9.901472092E0,9.903343204E0
7.021739583E0,2.288900167E-1,7.773404568E-2,9.887099266E0,9.890053848E0
7.026776718E0,2.145170271E-1,1.088755652E-1,9.884703636E0,9.887630526E0
7.031813854E0,1.977485269E-1,8.731608838E-2,9.923031807E0,9.925386079E0
7.036851041E0,2.312855273E-1,6.096558645E-2,9.901472092E0,9.904360624E0
7.041888125E0,2.121215165E-1,8.492057770E-2,9.896680832E0,9.899318084E0
7.046919479E0,2.240990251E-1,5.377905443E-2,9.884703636E0,9.887389875E0
7.051956666E0,1.977485269E-1,7.054757327E-2,9.884703636E0,9.886933165E0
7.056993802E0,1.977485269E-1,6.815206259E-2,9.877516747E0,9.879731082E0
7.062030937E0,2.312855273E-1,9.450256079E-2,9.877516747E0,9.880676131E0
7.067068020E0,2.169125229E-1,6.575655192E-2,9.879912376E0,9.882512005E0
7.072105208E0,1.953530163E-1,6.575655192E-2,9.918240547E0,9.920382164E0
7.077163645E0,2.049350291E-1,6.575655192E-2,9.932613373E0,9.934944927E0
7.082200833E0,1.929575205E-1,6.336104125E-2,9.925427437E0,9.927505076E0
7.087237916E0,2.240990251E-1,5.617456511E-2,9.882308006E0,9.885008219E0
7.092275104E0,2.240990251E-1,7.533853501E-2,9.903867722E0,9.906689261E0
7.097312187E0,2.049350291E-1,7.533853501E-2,9.872726440E0,9.875140588E0
7.102349323E0,2.121215165E-1,7.773404568E-2,9.908658981E0,9.911234077E0
7.107381458E0,1.929575205E-1,7.054757327E-2,9.942195892E0,9.944318414E0
7.112418593E0,1.977485269E-1,7.294308394E-2,9.923031807E0,9.925270042E0
7.117455781E0,1.929575205E-1,8.492057770E-2,9.903867722E0,9.906111243E0
7.122492916E0,2.169125229E-1,6.336104125E-2,9.925427437E0,9.927999570E0
7.127530000E0,2.097260207E-1,4.659258202E-2,9.920636177E0,9.922962160E0
7.132567187E0,2.264945209E-1,4.659258202E-2,9.903867722E0,9.906566836E0
7.137558906E0,2.264945209E-1,8.731608838E-2,9.903867722E0,9.906842066E0
7.142596041E0,2.025395185E-1,9.210705012E-2,9.899076462E0,9.901576681E0
7.147633177E0,2.217035294E-1,7.294308394E-2,9.870330811E0,9.873089864E0
7.152670312E0,1.929575205E-1,9.450256079E-2,9.887099266E0,9.889433514E0
7.157707448E0,2.001440227E-1,8.731608838E-2,9.877516747E0,9.879930101E0
7.162744583E0,1.977485269E-1,8.012955636E-2,9.937404633E0,9.939694968E0
7.167786145E0,2.193080187E-1,7.054757327E-2,9.906263351E0,9.908941747E0
7.172823229E0,2.288900167E-1,7.533853501E-2,9.913449287E0,9.916377530E0
7.177860312E0,1.905620247E-1,8.971153945E-2,9.925427437E0,9.927661953E0
7.182897448E0,2.217035294E-1,9.929358214E-2,9.872726440E0,9.875714609E0
7.187934531E0,2.384720147E-1,1.016890332E-1,9.899076462E0,9.902470619E0
7.192971614E0,1.929575205E-1,8.971153945E-2,9.946987152E0,9.949262996E0
7.198037031E0,2.169125229E-1,9.450256079E-2,9.906263351E0,9.909088523E0
7.203074114E0,1.905620247E-1,6.096558645E-2,9.870330811E0,9.872358431E0
7.208111198E0,2.121215165E-1,4.898803309E-2,9.889494896E0,9.891890854E0
7.213148333E0,2.097260207E-1,5.617456511E-2,9.901472092E0,9.903852289E0
7.218185364E0,2.025395185E-1,1.016890332E-1,9.867935181E0,9.870537353E0
7.223222448E0,2.073305249E-1,7.533853501E-2,9.894286156E0,9.896744938E0
7.228240052E0,2.169125229E-1,7.533853501E-2,9.930217743E0,9.932872261E0
7.233277135E0,2.336810231E-1,6.336104125E-2,9.913449287E0,9.916405509E0
7.238314270E0,2.288900167E-1,4.180156067E-2,9.903867722E0,9.906600520E0
7.243351354E0,2.073305249E-1,7.294308394E-2,9.901472092E0,9.903911158E0
7.248388437E0,1.737935245E-1,9.929358214E-2,9.887099266E0,9.889125103E0
7.253425520E0,1.977485269E-1,6.575655192E-2,9.860748291E0,9.862950130E0
7.258455833E0,2.408675253E-1,5.617456511E-2,9.913449287E0,9.916534149E0
7.263492968E0,2.049350291E-1,7.773404568E-2,9.896680832E0,9.899107659E0
7.268530000E0,1.905620247E-1,6.575655192E-2,9.896680832E0,9.898733722E0
7.273567135E0,2.169125229E-1,8.971153945E-2,9.911054611E0,9.913833906E0
7.278604218E0,1.809800267E-1,7.773404568E-2,9.913449287E0,9.915405848E0
7.283641302E0,2.145170271E-1,7.773404568E-2,9.896680832E0,9.899310664E0
7.288706198E0,2.264945209E-1,1.304350346E-1,9.879912376E0,9.883368941E0
7.293743281E0,1.953530163E-1,7.533853501E-2,9.899076462E0,9.901290496E0
7.298780416E0,2.217035294E-1,7.294308394E-2,9.935009003E0,9.937750099E0
7.303817552E0,1.929575205E-1,8.492057770E-2,9.920636177E0,9.922875907E0
7.308854583E0,2.169125229E-1,1.064800546E-1,9.918240547E0,9.921183629E0
7.313891718E0,2.073305249E-1,6.096558645E-2,9.949381828E0,9.951728569E0
7.318929739E0,2.001440227E-1,7.533853501E-2,9.913449287E0,9.915755659E0
7.323966875E0,1.977485269E-1,6.575655192E-2,9.879912376E0,9.882109945E0
7.329003958E0,1.809800267E-1,5.617456511E-2,9.891890526E0,9.893705450E0
7.334041093E0,1.881665289E-1,7.294308394E-2,9.863143921E0,9.865208327E0
7.339078177E0,1.977485269E-1,2.503304742E-2,9.896680832E0,9.898687924E0
7.344115260E0,2.025395185E-1,5.138354376E-2,9.889494896E0,9.891702170E0
7.349169583E0,1.690025181E-1,7.773404568E-2,9.901472092E0,9.903219376E0
7.354206718E0,2.073305249E-1,3.940605000E-2,9.915844917E0,9.918090502E0
7.359243802E0,2.217035294E-1,5.138354376E-2,9.918240547E0,9.920851187E0
7.364280937E0,2.121215165E-1,7.054757327E-2,9.899076462E0,9.901600239E0
7.369317968E0,2.049350291E-1,8.731608838E-2,9.908658981E0,9.911162660E0
7.374355104E0,2.025395185E-1,7.294308394E-2,9.944591522E0,9.946921307E0
7.379350052E0,1.905620247E-1,8.971153945E-2,9.865539551E0,9.867787628E0
7.384387135E0,2.145170271E-1,8.492057770E-2,9.889494896E0,9.892185722E0
7.389424218E0,2.121215165E-1,1.064800546E-1,9.903867722E0,9.906711331E0
7.394461302E0,1.977485269E-1,8.971153945E-2,9.923031807E0,9.925407442E0
7.399498437E0,2.240990251E-1,8.731608838E-2,9.913449287E0,9.916366333E0
7.404535520E0,2.001440227E-1,8.971153945E-2,9.884703636E0,9.887136682E0
7.409592448E0,2.073305249E-1,9.689807147E-2,9.906263351E0,9.908906538E0
7.414629531E0,2.001440227E-1,6.815206259E-2,9.903867722E0,9.906124276E0
7.419666666E0,2.145170271E-1,5.377905443E-2,9.903867722E0,9.906336638E0
7.424703750E0,2.025395185E-1,7.533853501E-2,9.903867722E0,9.906225012E0
7.429740833E0,1.881665289E-1,7.054757327E-2,9.884703636E0,9.886746157E0
7.434777916E0,2.001440227E-1,5.617456511E-2,9.899076462E0,9.901258910E0
7.439814479E0,2.025395185E-1,5.377905443E-2,9.894286156E0,9.896505089E0
7.444851614E0,1.881665289E-1,7.533853501E-2,9.927823067E0,9.929891912E0
7.449888698E0,2.025395185E-1,5.617456511E-2,9.879912376E0,9.882147864E0
7.454925781E0,2.097260207E-1,5.377905443E-2,9.915844917E0,9.918208387E0
7.459962916E0,1.977485269E-1,6.575655192E-2,9.887099266E0,9.889295238E0
7.465000000E0,2.312855273E-1,6.815206259E-2,9.915844917E0,9.918776040E0
7.470038385E0,2.169125229E-1,5.138354376E-2,9.889494896E0,9.892006905E0
7.475075468E0,1.977485269E-1,5.617456511E-2,9.870330811E0,9.872471341E0
7.480112552E0,1.857710183E-1,7.054757327E-2,9.887099266E0,9.889096002E0
7.485149687E0,1.833755225E-1,6.096558645E-2,9.901472092E0,9.903357661E0
7.490186718E0,2.169125229E-1,9.450256079E-2,9.851166725E0,9.854007693E0
7.495223854E0,2.193080187E-1,1.112710759E-1,9.832002640E0,9.835077690E0
7.500250520E0,2.121215165E-1,7.773404568E-2,9.908658981E0,9.911234077E0
7.505287604E0,1.977485269E-1,7.533853501E-2,9.918240547E0,9.920497766E0
7.510324687E0,1.761890203E-1,6.336104125E-2,9.908658981E0,9.910427841E0
7.515361823E0,1.953530163E-1,8.252506703E-2,9.875122070E0,9.877398903E0
7.520398906E0,2.097260207E-1,8.252506703E-2,9.925427437E0,9.927985959E0
7.525436041E0,2.025395185E-1,6.096558645E-2,9.908658981E0,9.910916298E0
7.530500937E0,2.121215165E-1,7.533853501E-2,9.923031807E0,9.925584702E0
7.535538073E0,1.929575205E-1,7.294308394E-2,9.889494896E0,9.891646101E0
7.540575104E0,2.097260207E-1,6.815206259E-2,9.935009003E0,9.937456093E0
7.545612239E0,2.217035294E-1,5.857007578E-2,9.915844917E0,9.918496022E0
7.550649323E0,1.905620247E-1,6.336104125E-2,9.889494896E0,9.891533643E0
7.555686458E0,2.145170271E-1,7.533853501E-2,9.913449287E0,9.916056183E0
7.560715833E0,1.833755225E-1,6.815206259E-2,9.906263351E0,9.908194834E0
7.565752916E0,1.953530163E-1,2.024208568E-2,9.927823067E0,9.929765525E0
7.570790000E0,1.977485269E-1,5.857007578E-2,9.872726440E0,9.874880369E0
7.575827135E0,2.097260207E-1,5.377905443E-2,9.906263351E0,9.908629107E0
7.580864218E0,2.025395185E-1,5.377905443E-2,9.899076462E0,9.901294321E0
7.585901302E0,2.097260207E-1,4.898803309E-2,9.925427437E0,9.927763829E0
7.590949114E0,1.809800267E-1,8.252506703E-2,9.932613373E0,9.934604802E0
7.595986198E0,2.073305249E-1,5.617456511E-2,9.896680832E0,9.899011719E0
7.601023281E0,2.049350291E-1,8.252506703E-2,9.925427437E0,9.927885906E0
7.606060416E0,1.881665289E-1,8.731608838E-2,9.896680832E0,9.898854592E0
7.611097448E0,2.193080187E-1,8.971153945E-2,9.889494896E0,9.892333065E0
7.616134583E0,2.121215165E-1,7.294308394E-2,9.903867722E0,9.906407627E0
7.621176093E0,2.097260207E-1,7.773404568E-2,9.875122070E0,9.877654757E0
7.626213177E0,1.857710183E-1,8.252506703E-2,9.901472092E0,9.903558494E0
7.631250260E0,2.073305249E-1,9.929358214E-2,9.925427437E0,9.928089190E0
7.636287343E0,2.001440227E-1,8.971153945E-2,9.923031807E0,9.925455457E0
7.641324479E0,2.193080187E-1,8.971153945E-2,9.901472092E0,9.904306828E0
7.646361562E0,2.073305249E-1,7.773404568E-2,9.899076462E0,9.901552571E0
7.651348802E0,1.977485269E-1,7.294308394E-2,9.889494896E0,9.891740720E0
7.656385885E0,1.929575205E-1,7.533853501E-2,9.891890526E0,9.894059161E0
7.661423020E0,2.025395185E-1,1.280395836E-1,9.889494896E0,9.892397368E0
7.666460052E0,2.145170271E-1,8.731608838E-2,9.891890526E0,9.894601550E0
7.671497187E0,1.929575205E-1,9.450256079E-2,9.913449287E0,9.915777333E0
7.676534270E0,2.025395185E-1,8.012955636E-2,9.882308006E0,9.884708116E0
7.681592864E0,2.121215165E-1,7.533853501E-2,9.846375465E0,9.848948230E0
7.686630000E0,2.193080187E-1,1.136665866E-1,9.899076462E0,9.902157891E0
7.691667083E0,1.977485269E-1,6.575655192E-2,9.908658981E0,9.910850176E0
7.696704166E0,1.857710183E-1,5.138354376E-2,9.903867722E0,9.905743131E0
7.701741250E0,2.025395185E-1,7.294308394E-2,9.911054611E0,9.913392278E0
7.706778385E0,1.905620247E-1,5.857007578E-2,9.875122070E0,9.877134212E0
7.711820520E0,1.881665289E-1,8.971153945E-2,9.896680832E0,9.898876012E0
7.716857656E0,1.977485269E-1,8.731608838E-2,9.901472092E0,9.903831489E0
7.721894739E0,1.953530163E-1,4.898803309E-2,9.923031807E0,9.925075459E0
7.726931875E0,1.953530163E-1,9.210705012E-2,9.911054611E0,9.913407589E0
7.731968958E0,2.073305249E-1,7.773404568E-2,9.901472092E0,9.903947602E0
7.737006041E0,2.169125229E-1,7.533853501E-2,9.901472092E0,9.904134315E0
7.742054895E0,2.025395185E-1,9.450256079E-2,9.889494896E0,9.892020132E0
7.747091979E0,2.145170271E-1,9.210705012E-2,9.894286156E0,9.897039951E0
7.752129062E0,2.145170271E-1,7.533853501E-2,9.911054611E0,9.913662136E0
7.757166198E0,1.690025181E-1,7.294308394E-2,9.939800262E0,9.941504504E0
7.762203281E0,2.145170271E-1,7.054757327E-2,9.915844917E0,9.918415949E0
7.767240364E0,2.217035294E-1,8.492057770E-2,9.894286156E0,9.897134054E0
7.772259062E0,2.145170271E-1,5.617456511E-2,9.896680832E0,9.899164845E0
7.777296145E0,2.073305249E-1,7.773404568E-2,9.899076462E0,9.901552571E0
7.782333281E0,2.049350291E-1,6.096558645E-2,9.894286156E0,9.896596066E0
7.787370364E0,1.809800267E-1,7.773404568E-2,9.896680832E0,9.898640707E0
7.792407448E0,1.977485269E-1,7.773404568E-2,9.911054611E0,9.913331961E0
7.797444531E0,2.049350291E-1,2.982406877E-2,9.891890526E0,9.894058117E0
7.802491875E0,1.977485269E-1,7.773404568E-2,9.867935181E0,9.870222479E0
7.807528958E0,1.881665289E-1,1.136665866E-1,9.851166725E0,9.853619263E0
7.812566093E0,1.953530163E-1,8.012955636E-2,9.894286156E0,9.896538894E0
7.817603229E0,2.097260207E-1,7.773404568E-2,9.899076462E0,9.901603021E0
7.822640312E0,1.642115265E-1,7.054757327E-2,9.851166725E0,9.852787841E0
7.827677395E0,1.761890203E-1,6.336104125E-2,9.911054611E0,9.912823044E0
7.832714635E0,1.977485269E-1,5.138354376E-2,9.908658981E0,9.910765236E0
7.837751770E0,1.881665289E-1,8.252506703E-2,9.894286156E0,9.896419330E0
7.842788854E0,2.001440227E-1,7.773404568E-2,9.911054611E0,9.913380035E0
7.847825989E0,2.025395185E-1,6.815206259E-2,9.867935181E0,9.870248816E0
7.852863073E0,2.360765189E-1,7.773404568E-2,9.882308006E0,9.885433032E0
7.857900156E0,2.408675253E-1,7.533853501E-2,9.927823067E0,9.931030355E0
7.862970260E0,1.881665289E-1,7.773404568E-2,9.911054611E0,9.913145451E0
7.868007291E0,2.264945209E-1,4.898803309E-2,9.863143921E0,9.865865781E0
7.873044427E0,2.097260207E-1,7.054757327E-2,9.884703636E0,9.887179979E0
7.878081510E0,1.881665289E-1,2.742855810E-2,9.911054611E0,9.912878617E0
7.883118593E0,1.953530163E-1,9.210705012E-2,9.906263351E0,9.908617467E0
7.888155677E0,1.857710183E-1,7.054757327E-2,9.899076462E0,9.901070782E0
7.893177916E0,1.953530163E-1,7.054757327E-2,9.901472092E0,9.903650304E0
7.898215052E0,2.217035294E-1,1.040845439E-1,9.848771095E0,9.851815982E0
7.903252135E0,1.905620247E-1,7.294308394E-2,9.879912376E0,9.882019184E0
7.908289218E0,1.881665289E-1,3.940605000E-2,9.891890526E0,9.893758520E0
7.913326302E0,2.121215165E-1,6.096558645E-2,9.875122070E0,9.877588180E0
7.918363437E0,2.240990251E-1,7.054757327E-2,9.872726440E0,9.875521490E0
7.923355260E0,1.953530163E-1,4.659258202E-2,9.891890526E0,9.893929040E0
7.928392343E0,1.953530163E-1,9.210705012E-2,9.899076462E0,9.901432286E0
7.933429427E0,2.264945209E-1,1.136665866E-1,9.896680832E0,9.899924815E0
7.938466562E0,2.145170271E-1,7.773404568E-2,9.915844917E0,9.918469668E0
7.943503645E0,2.049350291E-1,6.336104125E-2,9.918240547E0,9.920559890E0
7.948540729E0,1.905620247E-1,8.492057770E-2,9.920636177E0,9.922829614E0
7.953603854E0,1.857710183E-1,9.450256079E-2,9.923031807E0,9.925220494E0
7.958640937E0,2.049350291E-1,8.971153945E-2,9.855957985E0,9.858496555E0
7.963678073E0,2.001440227E-1,8.971153945E-2,9.889494896E0,9.891926763E0
7.968715208E0,2.025395185E-1,8.492057770E-2,9.903867722E0,9.906302519E0
7.973752239E0,1.929575205E-1,7.054757327E-2,9.894286156E0,9.896418953E0
7.978789323E0,1.905620247E-1,8.252506703E-2,9.913449287E0,9.915624088E0
7.983828645E0,1.881665289E-1,6.815206259E-2,9.937404633E0,9.939419610E0
7.988865781E0,2.049350291E-1,9.689807147E-2,9.911054611E0,9.913646711E0
7.993902864E0,2.097260207E-1,6.575655192E-2,9.906263351E0,9.908701354E0
7.998940000E0,2.312855273E-1,8.492057770E-2,9.911054611E0,9.914116602E0
8.003977083E0,2.169125229E-1,9.929358214E-2,9.923031807E0,9.925898977E0
8.009014166E0,2.217035294E-1,7.294308394E-2,9.901472092E0,9.904222470E0
8.014052552E0,1.977485269E-1,8.252506703E-2,9.872726440E0,9.875051505E0
8.019089635E0,1.929575205E-1,7.054757327E-2,9.870330811E0,9.872468783E0
8.024126718E0,2.097260207E-1,6.815206259E-2,9.891890526E0,9.894348280E0
8.029163854E0,2.193080187E-1,7.773404568E-2,9.937404633E0,9.940128240E0
8.034200885E0,2.145170271E-1,8.012955636E-2,9.906263351E0,9.908909723E0
8.039238020E0,2.193080187E-1,7.294308394E-2,9.913449287E0,9.916143075E0
8.044260937E0,2.001440227E-1,3.221957758E-2,9.906263351E0,9.908337364E0
8.049298020E0,1.690025181E-1,6.575655192E-2,9.915844917E0,9.917503022E0
8.054335104E0,2.001440227E-1,6.575655192E-2,9.923031807E0,9.925267845E0
8.059372239E0,2.121215165E-1,7.773404568E-2,9.896680832E0,9.899259043E0
8.064409323E0,2.217035294E-1,4.659258202E-2,9.882308006E0,9.884904393E0
8.069446406E0,2.217035294E-1,8.012955636E-2,9.903867722E0,9.906672955E0
8.074493489E0,2.145170271E-1,6.096558645E-2,9.920636177E0,9.923142472E0
8.079530573E0,2.145170271E-1,4.898803309E-2,9.903867722E0,9.906311787E0
8.084567708E0,1.905620247E-1,8.731608838E-2,9.889494896E0,9.891716094E0
8.089604791E0,2.025395185E-1,8.012955636E-2,9.903867722E0,9.906262607E0
8.094641875E0,2.240990251E-1,9.689807147E-2,9.901472092E0,9.904481773E0
8.099678958E0,1.977485269E-1,1.088755652E-1,9.882308006E0,9.884885933E0
8.104726979E0,1.690025181E-1,9.689807147E-2,9.913449287E0,9.915363224E0
8.109764062E0,1.905620247E-1,7.294308394E-2,9.942195892E0,9.944289504E0
8.114801198E0,2.073305249E-1,8.492057770E-2,9.915844917E0,9.918375768E0
8.119838333E0,2.073305249E-1,8.252506703E-2,9.858353615E0,9.860878882E0
8.124875416E0,2.264945209E-1,5.857007578E-2,9.896680832E0,9.899445525E0
8.129912500E0,2.121215165E-1,4.180156067E-2,9.889494896E0,9.891857874E0
8.134934010E0,2.001440227E-1,6.575655192E-2,9.896680832E0,9.898922822E0
8.139971093E0,2.145170271E-1,6.575655192E-2,9.875122070E0,9.877670646E0
8.145008177E0,2.025395185E-1,5.857007578E-2,9.875122070E0,9.877372556E0
8.150045260E0,1.977485269E-1,8.492057770E-2,9.908658981E0,9.910995853E0
8.155082395E0,1.881665289E-1,6.336104125E-2,9.920636177E0,9.922622810E0
8.160119479E0,2.312855273E-1,9.929358214E-2,9.879912376E0,9.883117968E0
8.165189218E0,1.977485269E-1,8.492057770E-2,9.865539551E0,9.867886634E0
8.170226302E0,2.025395185E-1,8.012955636E-2,9.879912376E0,9.882313068E0
8.175263385E0,2.097260207E-1,8.012955636E-2,9.932613373E0,9.935150435E0
8.180300520E0,2.073305249E-1,9.929358214E-2,9.901472092E0,9.904140283E0
8.185337604E0,2.169125229E-1,7.533853501E-2,9.879912376E0,9.882580407E0
8.190374687E0,2.360765189E-1,7.294308394E-2,9.918240547E0,9.921317875E0
8.195426614E0,2.049350291E-1,1.016890332E-1,9.923031807E0,9.925668706E0
8.200463802E0,1.953530163E-1,7.294308394E-2,9.891890526E0,9.894088218E0
8.205500937E0,2.217035294E-1,8.731608838E-2,9.899076462E0,9.901943817E0
8.210538125E0,1.929575205E-1,6.336104125E-2,9.911054611E0,9.913135262E0
8.215575312E0,2.001440227E-1,5.617456511E-2,9.927823067E0,9.929999197E0
8.220612448E0,2.240990251E-1,9.210705012E-2,9.937404633E0,9.940357887E0
8.225609843E0,2.264945209E-1,7.294308394E-2,9.887099266E0,9.889962202E0
8.230647031E0,2.001440227E-1,7.054757327E-2,9.848771095E0,9.851057135E0
8.235684218E0,1.905620247E-1,8.012955636E-2,9.913449287E0,9.915604440E0
8.240721354E0,1.905620247E-1,1.088755652E-1,9.867935181E0,9.870375500E0
8.245758541E0,1.977485269E-1,8.252506703E-2,9.901472092E0,9.903790408E0
8.250795677E0,1.809800267E-1,7.773404568E-2,9.906263351E0,9.908221331E0
8.255822708E0,1.785845160E-1,8.012955636E-2,9.894286156E0,9.896222093E0
8.260859843E0,2.001440227E-1,7.294308394E-2,9.872726440E0,9.875024339E0
8.265897031E0,2.169125229E-1,4.659258202E-2,9.918240547E0,9.920721620E0
8.270934218E0,2.121215165E-1,8.492057770E-2,9.906263351E0,9.908898053E0
8.275971302E0,2.145170271E-1,3.940605000E-2,9.884703636E0,9.887109606E0
8.281008489E0,1.905620247E-1,4.419707134E-2,9.906263351E0,9.908194631E0
8.286055625E0,2.097260207E-1,8.731608838E-2,9.884703636E0,9.887313845E0
8.291092812E0,2.169125229E-1,8.252506703E-2,9.906263351E0,9.908981533E0
8.296129895E0,2.025395185E-1,9.210705012E-2,9.894286156E0,9.896787585E0
8.301167135E0,1.785845160E-1,6.815206259E-2,9.915844917E0,9.917687107E0
8.306204270E0,2.288900167E-1,7.294308394E-2,9.889494896E0,9.892412276E0
8.311241458E0,2.193080187E-1,7.054757327E-2,9.927823067E0,9.930495648E0
8.316272968E0,2.049350291E-1,6.096558645E-2,9.923031807E0,9.925335028E0
8.321310156E0,2.264945209E-1,1.016890332E-1,9.877516747E0,9.880636493E0
8.326347291E0,1.929575205E-1,1.232485697E-1,9.882308006E0,9.884960007E0
8.331384531E0,1.929575205E-1,8.971153945E-2,9.911054611E0,9.913338705E0
8.336421666E0,2.121215165E-1,7.773404568E-2,9.879912376E0,9.882494963E0
8.341458854E0,2.217035294E-1,7.294308394E-2,9.889494896E0,9.892248604E0
8.346499583E0,2.025395185E-1,5.377905443E-2,9.891890526E0,9.894109996E0
8.351536770E0,2.001440227E-1,9.210705012E-2,9.889494896E0,9.891948778E0
8.356573958E0,1.953530163E-1,6.575655192E-2,9.915844917E0,9.917987051E0
8.361611093E0,1.713980287E-1,5.377905443E-2,9.903867722E0,9.905496722E0
8.366648281E0,1.977485269E-1,6.815206259E-2,9.889494896E0,9.891706550E0
